timestamp,ax,ay,az,roll_rate,pitch_rate,yaw_rate
0.0,-0.0014409032957792835,-0.0017290360033151932,-9.811113158615678,0.0007019837250988631,-0.0001275882837828871,-0.0014973534143409575
0.1,0.0033231834406771527,-0.0026733747849716823,-9.812169586841453,0.00011588478670085507,0.00023229773690672088,0.001177583740254252
0.2,0.006566365067986689,0.0011050717744383195,-9.81738321602345,-0.001014662367487717,0.00024634219521120195,0.0013251060148186673
0.30000000000000004,0.0004165686390338389,-0.0010632329377078427,-9.804682237795992,-0.0014535452980086782,-0.0003122773171445598,0.0005043878536169834
0.4,0.008734043853794468,-0.0024062967265513543,-9.806234001413122,0.0002482134493284145,0.0007823268087036421,-0.0010991967594395089
0.5,0.005682506875853858,-0.015145203917251398,-9.83619945422219,-0.0006068907281995027,-0.0009158100463459948,0.0008900378307187982
0.6,0.006642658996128949,-0.012190747412956953,-9.80152638576652,-0.0010022028242423497,-8.624384633628418e-05,-0.00027987405706071607
0.7,0.0011441985746092121,0.00818636311543767,-9.803615862092077,0.0003498851018692087,0.0006499480978062986,0.0004925178938121772
0.7999999999999999,-0.006269854652195999,-0.007173710938165775,-9.814699682741361,0.0004993264004767815,-0.00025011557099738417,0.002349780211004506
0.8999999999999999,-0.008192925421864936,-0.010988745999021584,-9.802315264845303,0.0014218499813434655,0.0005056926908392599,0.0008498434704861803
0.9999999999999999,0.014263449774421623,-0.000940274760163039,-9.82422958933139,-0.0005320765483187126,0.0009528957573165765,-0.0014296521464367575
1.0999999999999999,0.0003353132078726135,0.0025323735934206187,-9.813155921648137,0.0007236319863680965,0.0005807797415265663,0.0023354349113644153
1.2,0.006199677677731354,-0.006094034586430621,-9.81561797592334,-0.0008315811012420066,0.0009522735598158207,-0.0005528063054479272
1.3,-0.0007026077370059765,0.007493026192896751,-9.817234629906515,-0.00029365796361771856,-0.001841286265603916,-0.0010684519546920242
1.4000000000000001,-0.005677364121918498,0.004157609885166716,-9.798065067275568,-1.8466813163711634e-05,0.00026136427919980286,0.0001819961689284382
1.5000000000000002,0.010847411134536038,0.008933551987382066,-9.807263066845925,-0.0010109443034453118,0.0009033853143445947,0.0003950740663954118
1.6000000000000003,0.012269415497142203,-0.00029906592681213463,-9.790468990755162,-0.0003588763403218226,0.0015930604142630432,0.00012914604655516374
1.7000000000000004,-0.0051626900924550264,-0.011284478727923954,-9.81151030551539,0.001423321026167184,0.0008163744966147283,0.0007029110748468611
1.8000000000000005,-0.023758725730911978,0.007109642045700387,-9.804441475890803,-0.0005499262844053271,-0.0006273843661803962,1.1716896082991375e-05
1.9000000000000006,0.017248762631487318,-0.010551006994223245,-9.814278050347363,0.001361784750350584,-0.0004461507994277505,-0.0003502239929012959
2.0000000000000004,0.000977763472886767,-0.012412893766356957,-9.8078005456985,-0.0012096175969736347,0.0008851983103581446,1.7208444856334423e-05
2.1000000000000005,0.022834314668477504,0.0028084051353103475,-9.796343105095673,-0.001303263971717364,-0.00012213934352186544,0.0003371734147071392
2.2000000000000006,0.01745720918371049,-0.01680915938020964,-9.800093803201912,0.0005913540138159165,0.0015335461957381301,0.0007264134154402109
2.3000000000000007,0.0005207118510394829,-0.005216496504181593,-9.822481797178428,0.00019542276490297042,-0.00019169676899531105,0.0020342953735229003
2.400000000000001,-0.006110248279848474,0.003203918452051127,-9.825690014196757,-0.0003954625783261785,0.0002611478800910991,0.0008379881874700585
2.500000000000001,0.014481016868281007,-0.0004414817632926931,-9.821172448790609,0.0004578503994915399,0.0005169870984137933,0.0005056866557573486
2.600000000000001,-0.007002876991747331,0.011333843975868878,-9.809121040890956,0.0006998246217159857,0.0012740732400944477,0.0006233007724937345
2.700000000000001,0.0028651602798177057,0.021527952351005242,-9.807562969590279,-0.0002959642327720814,0.00011196703758302993,0.0014967972615431986
2.800000000000001,0.0011871248688680022,0.005193776551392121,-9.798042685596679,-0.0005128586102268295,-0.0017265697692536454,0.0003134518835685857
2.9000000000000012,0.00229734794523969,-0.006080101785608145,-9.801289136189576,0.0006075673769845699,-0.0009949924215994165,0.0005322473160652502
3.0000000000000013,-0.001961049589025753,-0.01483025270207281,-9.80547049766934,-4.521462667939092e-05,-0.0007452828991898675,0.0005369745984192244
3.1000000000000014,0.004880932721923791,-0.005775371839442981,-9.805996478094654,0.001015064936192444,-0.0007126666356857019,0.0003949191794660912
3.2000000000000015,2.7557504813070923e-05,0.02266010310650884,-9.828623029707783,0.0006952839314064626,-0.0003062450197812156,-8.616825468898334e-05
3.3000000000000016,0.019015889763832696,-8.573151260794101e-05,-9.787590562962245,-0.00044214796541354673,0.00035051204134810954,-0.0004768180674083535
3.4000000000000017,-0.00690688012617884,0.0006248312645153182,-9.812825715253492,0.00020249158398642759,-0.002105027867724164,0.0020164972644806435
3.5000000000000018,-0.0016699690878127882,0.01742905506233993,-9.820071121261066,0.00029253570472426854,0.0031649421014768855,-0.000855699464479438
3.600000000000002,-0.014952997731082655,-0.005465095353366406,-9.805275115726774,0.0006933400400612963,0.0012903666880214263,-0.00024298253931325935
3.700000000000002,-0.01602250759500302,-0.0043502980447508565,-9.797597773051983,0.00046566265317129135,-0.0019569387853750034,-2.102150889306062e-05
3.800000000000002,0.0139816809132213,0.02126548136950435,-9.804383133612152,0.0003093023127995021,-0.0012402056679857289,-0.0008292127283966185
3.900000000000002,0.00046915857506165797,0.005031977408135291,-9.804198158088802,-0.0004782085551341361,-0.0011519422284235155,-0.0007637515543219801
4.000000000000002,-0.011569743942597613,0.006434091827639932,-9.833122811060457,-0.0003332780256094936,0.00044987833210121113,0.0015360431558762272
4.100000000000001,0.0007129967505097183,0.0100128393951411,-9.813990040717812,-0.0007444039865320908,-0.0006743930384374659,0.0015413663577074558
4.200000000000001,0.009942211438977458,0.004873979264626153,-9.776697311364384,-3.2341372526149415e-05,0.0006203496510288014,0.00032162227131978227
4.300000000000001,-0.0022188569012415995,0.02316171347771517,-9.794933951969629,-0.0013994796346205546,-0.00039984632228521537,0.0004423674012775851
4.4,0.007831832150420475,-0.013484470698133797,-9.832555615870218,-0.0019063669687617822,-7.111146334121905e-05,-8.917217217442132e-05
4.5,0.0034521937611451435,-0.0076967477787905835,-9.82224237675906,-0.0020230450575793495,0.00032918735874743675,0.00038408511050914203
4.6,0.009929936703557114,0.007907956879792327,-9.81190715580937,0.0013492609627534854,-0.00013636691152654943,-0.0006468050886243439
4.699999999999999,-0.005205784433035681,-0.005848116447053935,-9.831657367195003,0.00015632605298576671,0.00024988559176216584,-0.0003482343681133066
4.799999999999999,-0.007138414700864147,0.0037180382435527625,-9.792831294124523,3.825515250498131e-05,-0.0005076336072097064,-0.0005774156132923275
4.899999999999999,-0.0006975643814516223,-0.012647655710414422,-9.81125260688198,6.118226433678073e-05,0.0018446786877661901,0.0009575055004173626
4.999999999999998,0.010340292356498797,-0.0071294854109924,-9.803300784567638,-0.001139382474549917,0.0003119606966908699,0.00043276914231749395
5.099999999999998,-0.007664094160622363,0.019993798051614897,-9.804326263372493,-0.0019027283028945088,0.0005528598865958085,-0.0003933797895271099
5.1999999999999975,1.3762158163019207e-05,0.004657647909141831,-9.806094673326886,-0.0020391513430346154,-0.0011583197436135844,0.0007866563349498922
5.299999999999997,0.013012042492292906,0.019031528866625007,-9.791968317613469,-0.0020555366046304795,0.0007694821209364508,-0.0019022578783235906
5.399999999999997,0.016136007285419952,0.002533494028220485,-9.82141168787977,0.00200990094709114,0.0006439708702908716,-0.0018771164170725506
5.4999999999999964,0.002934681174606206,-0.0073113990766538045,-9.808887045200299,-0.0004651946145553634,0.0013734938862686545,-0.0014092537684429296
5.599999999999996,0.003174051682614164,0.018141883405999773,-9.818269602989703,0.00021064867605821865,0.00020200164095007708,-0.0006756694203669477
5.699999999999996,0.006478936227652526,0.0009705028180989634,-9.819437675047832,0.001762016104898851,0.0007916149965898025,-0.00015307402653419344
5.799999999999995,-0.006366747674434632,-0.007843626222105264,-9.797690590274396,-0.00014647823454054878,0.0004594382038647557,-0.00017042363322948025
5.899999999999995,0.006164094698173579,-0.001159791301258834,-9.802361461275229,-0.00018321090982152894,0.0008295872971185219,0.0006864173266833689
5.999999999999995,-0.0011660980066118065,-0.008597772404265873,-9.819401199905439,-0.0007407368201407703,-0.0009844876432848098,0.0008798297884667804
6.099999999999994,-0.0004660231251040279,0.015701009775725302,-9.78720670172295,2.4222471072236086e-05,-0.0015480172023433728,-0.0003674200131484831
6.199999999999994,-0.0007534841691644348,-0.01488442345152801,-9.812504932773031,0.0002869463091418843,-0.0004594278461973759,-0.0007543922535562616
6.299999999999994,-0.00758756759562809,0.017866837303594122,-9.811596460802978,-0.0008299301146835644,-0.0003728983906951256,0.0009683775271277517
6.399999999999993,-0.006846880440425576,0.004818473093318288,-9.802721150511003,0.0007491178322009753,0.0013996946711966503,-0.0005364480087854284
6.499999999999993,0.011327328621819975,-0.007928535998113695,-9.813965398769993,0.0011960871730603653,0.0008223754031111767,1.6131673809733326e-05
6.5999999999999925,-0.011914138260298779,0.005616598270933244,-9.816303726994834,-0.000923884828209913,-0.0006481342544285978,0.00026052831607274696
6.699999999999992,-0.02121032105431511,0.0036076315321198916,-9.808260903802902,-0.0005845264024370061,0.001036927293450356,0.0006254748519611743
6.799999999999992,-0.006062841454651516,-0.006700166217709237,-9.803048485245382,-0.001516073559416074,-0.000332622429754111,-0.0006170119447320476
6.8999999999999915,0.0006987748465396224,0.0021112652239076496,-9.809632120850358,0.0011348480762194146,0.00022806303463200752,-0.0003009575152293957
6.999999999999991,-0.012108549075575813,0.007218497968577306,-9.804718534541484,0.001450809544896753,-0.0007474548334518082,4.045292918769658e-05
7.099999999999991,-0.0005869269759393822,-0.0008761085924956589,-9.80989609788673,-0.001714539490281463,0.0008249855340256519,0.0006672409152135004
7.19999999999999,0.01130473400858816,0.022495743664943505,-9.813189671936358,-3.61431764313115e-05,9.783565123339722e-06,0.001956220648946517
7.29999999999999,-0.01731219722734932,0.0048576797020739824,-9.824708313674485,-0.0025815707821231874,-0.0020208327914879374,-0.0013677332025520117
7.39999999999999,0.010690254394207012,-0.008683604129657694,-9.812274576592815,-0.001163512760179894,0.0006109504782247451,-0.0010879260154180702
7.499999999999989,0.01317652176005165,-0.009931054142672816,-9.817648274379787,0.0001227410454024315,2.4711220827863334e-05,0.0014387257544081617
7.599999999999989,0.0012040728809317063,-0.012078342883608746,-9.815603352740963,-0.0005727839433678338,0.0007250422211312412,0.0003978288305604028
7.699999999999989,-0.0011939102301213708,0.008696072200033855,-9.815284964171783,-0.00013623374831210015,0.0001807604043332871,0.0015422172615606798
7.799999999999988,-0.0009853318032359195,-0.0035079890881473488,-9.820458370377123,0.0006860521833164604,-0.0005876453742470405,0.00035772115285441676
7.899999999999988,-0.019016098903897122,0.010431869588150115,-9.823319377679887,-0.0007773423635754164,0.0010585811348526395,-0.0013204344421660244
7.999999999999988,-0.0007945503537323443,0.0007425608108048992,-9.81998556813333,0.001342933001549973,0.0014987783023244175,-0.0019575810527266697
8.099999999999987,-0.014489902973985051,0.00808232202493007,-9.823030241353674,-0.00038863735356702174,0.00012955208833383266,0.0007058866929027681
8.199999999999987,-0.0022325259441131015,0.0009522091980203824,-9.817767329173506,0.001292361598433893,-0.0004953138569017835,0.0003537696550365934
8.299999999999986,-0.005116380865832342,0.0010632349073443404,-9.811681631044,-0.00016246417156510375,-0.0010137808582104965,0.0008104497239455093
8.399999999999986,0.014140424167382613,0.002431480977794328,-9.802676647262523,0.0008380678807185794,0.0009279857809906793,0.00031739384047019085
8.499999999999986,0.002122572799824,0.0086400727202079,-9.809311676743972,-0.0009739183937649534,2.3848354455931616e-05,-0.0018743781435676657
8.599999999999985,-5.9002387550951924e-05,0.004133723362974993,-9.79764019223686,0.00015127727739709215,0.0009281398211815498,1.3499895741923435e-05
8.699999999999985,-0.0102347634604681,-0.014113797177192942,-9.819697343781373,-0.0013661477186468038,0.0006337078105192584,-0.0001935771147204548
8.799999999999985,0.005703148900153162,0.0007343142983148367,-9.799559504552779,0.0010601927908888368,-0.0006453380077771519,-0.0002602782297720671
8.899999999999984,-0.005328285867746177,-0.01621312075740941,-9.803247828545992,0.001188794788193607,-6.428391274197309e-06,-0.00047915432401989287
8.999999999999984,0.010909050288895557,-0.023449622890154908,-9.808225248040646,0.00014328397410029255,-0.0005708570545254728,0.0014056125872144317
9.099999999999984,0.009707354190544935,-0.0026115724769795673,-9.810866959900519,-0.0003880239635487064,-0.0005121199086543015,-0.001294161705286448
9.199999999999983,0.013799484536963858,0.010280001502907029,-9.802018336688606,-0.001094335919776077,0.0020808451646333334,0.001994203649377124
9.299999999999983,0.0018805716900128578,-0.009042206521399764,-9.818664300835442,0.00041854863108848825,-0.0009130141402775723,-2.0172336268184538e-05
9.399999999999983,0.010886447097867631,-0.015068237436831335,-9.789942713044043,0.0015667084089962464,-0.0012370858496374595,-0.0013996025813393146
9.499999999999982,-0.0028342185355946527,-0.010311432003003655,-9.812637208269106,-0.002581185965408421,-0.0002287020552019795,0.0018168953492980423
9.599999999999982,-0.011165947007376288,-0.002730688368293894,-9.824896092009409,0.0006382375252419706,-0.00022531918924715498,0.0019547721022265927
9.699999999999982,0.0020683944343940007,-0.0037217996823866906,-9.804497275042444,-0.000506227959188095,-0.001339308177819252,0.000315986978697352
9.799999999999981,-0.0017486879820850381,0.0016631505033886194,-9.8062454266744,-0.0005103196715944553,0.0004215763724924534,0.0017517359483700272
9.89999999999998,-0.011077995297251658,0.01737425507234115,-9.812428032509896,-0.00076662664584935,0.0024272205711517916,0.00016906117585696205
9.99999999999998,0.013704030045911841,0.008175942409178665,-9.826805948250398,0.00012081959865251861,-0.0005253197596706632,-0.0013277528835569192
10.09999999999998,-0.01771711366319774,0.0010229024372388521,-9.80409746989201,0.0003906681852361962,-0.0003058285551611547,-0.0007844771015746661
10.19999999999998,-0.009868611816170736,-0.005551605944594507,-9.820330552031209,-0.00020327465129986862,-2.2887083968737616e-05,-0.0008819481178901068
10.29999999999998,-0.0023205013443001374,-0.007603200384884009,-9.81004472405252,0.0005070877079547295,0.00017812523394876038,0.0004861910897447781
10.399999999999979,-0.016520145776078715,-0.003786964985785043,-9.807232606232693,0.0006411624595913326,-0.0015980033627401077,0.00017321864095648672
10.499999999999979,0.012064206485316314,-0.0017861069581218178,-9.810947581114768,0.000450456882026013,0.00024711818395745414,0.0006886779059388743
10.599999999999978,0.0007241386408490774,0.0015249607035271989,-9.81782444437141,-0.00017043786136210155,0.0012531220372686514,-0.00019012902896910281
10.699999999999978,-0.0016856427948129626,-0.004915033719195106,-9.802128141175594,-0.0008546790776627818,0.0009105021950520499,-0.0009229324969523001
10.799999999999978,-0.010577811251432884,0.002059394620941099,-9.808698205303983,0.00029755730301390677,0.0010625371208893997,-0.00039845489643152484
10.899999999999977,0.0044299359289394855,-0.009098172653491918,-9.797408309703012,0.0006324586664200144,0.0005365187653532374,0.00020191973405718375
10.999999999999977,-0.007855994441390646,-0.0032737156166738925,-9.80498220538175,-1.9184119536144097e-05,0.00012374466247159176,-0.0013457780913580081
11.099999999999977,0.0018109397987624675,-0.006919273901409018,-9.820833365537522,-0.0001546853895195475,-0.0018565042526126185,0.0007126115777389649
11.199999999999976,0.00852012897691245,-0.0005343609924671386,-9.819937821745519,-0.0009453688204139012,-0.00015112305346823743,-0.0024096919689787773
11.299999999999976,0.0018047678307435738,0.006644320239800762,-9.81311894848516,-0.0004944023694095982,0.00018196725856866127,0.0003646860045626413
11.399999999999975,0.01094151751865899,0.000183966792131484,-9.81689757651534,-0.00046126504597235026,0.00018194574186008517,0.0015702424883345949
11.499999999999975,-0.003202733047876957,-0.010525266594013306,-9.818701066201328,-0.002096334606223154,0.00032979399768104145,-0.0013472820001495995
11.599999999999975,-0.012335095276125784,-0.019760146141547034,-9.82117988379583,0.0005684144769378177,-0.0013113541166252444,-0.001735599870891453
11.699999999999974,0.0017826313396986763,-0.0034117128893601336,-9.805678099864798,0.0007405598049078377,-8.498930533113934e-06,-0.0012837181850343055
11.799999999999974,-0.0012379996122706426,0.00500259480149979,-9.815829889570612,-0.0014374612477128944,0.0011026120608754852,-0.0004012048242146165
11.899999999999974,-0.004092300124147789,0.00015962241731200106,-9.799695276424908,0.00026361975195662363,-0.00033322598635705174,0.0006961763437375967
11.999999999999973,0.021470244928075616,0.013877862581055117,-9.80327128579322,-0.0011222804798570638,0.0037520587430653306,-0.0011846139419715252
12.099999999999973,-0.0037180290351912027,-0.006998891942285705,-9.79373108138477,0.00042024007547580323,-0.001427124962853585,0.0002816305344372554
12.199999999999973,0.005469056678489389,-0.0031848302355871345,-9.822201897893146,-0.0007250334179615153,-0.00043684901912440167,3.677506445008539e-05
12.299999999999972,-0.005199099496967408,0.007352204042444506,-9.819499474980528,-0.0017313868685091404,-0.0007393934438692396,0.0013629343634440458
12.399999999999972,-0.0057315630715068676,0.023408088877912233,-9.805085157656151,-0.0011644260642443259,-0.0008342861967831583,0.000257416370042266
12.499999999999972,-0.0117764392228478,0.023745786530316004,-9.819908907808932,0.0006809434559506826,0.0014601298902601428,-9.515632752198399e-05
12.599999999999971,-0.009958611253815084,-0.002730663422746166,-9.806377836025327,0.0008757520928615222,5.6716935996249485e-05,-0.001386178161600513
12.69999999999997,0.00042323906609705616,-0.00673358171552496,-9.831832358374255,-0.000697560188163781,-0.0014324506747879237,0.0006008988526540653
12.79999999999997,0.019441647540410785,0.018587536567603966,-9.815732087444488,-0.00046739437022327103,0.0006887819993238358,0.0010753302413157894
12.89999999999997,-0.0041873858655968686,-0.0014263593827157646,-9.787930706508472,-0.0001074515188872195,-0.00048532144229114597,0.0001339588005790405
12.99999999999997,0.005797023621298565,-0.010216418572185816,-9.812484028056703,-0.0011663606187184874,-0.00027826355350057475,0.0018909695286809776
13.09999999999997,0.007417221786678902,-0.000925432507186592,-9.819331120255864,-0.00031140795947916293,0.0010507333277452065,-0.0005476416240266548
13.199999999999969,0.014504206575201288,-0.013736363552618314,-9.812900462932852,0.0017427643332842211,-0.0020078387690536798,0.001202458531149385
13.299999999999969,-0.018513770746404312,-0.0009007984706598965,-9.811725347384112,0.0008242934907117545,-0.0031545431461243822,-0.0019037642527785128
13.399999999999968,-0.005660162936337812,0.0003689504027598711,-9.818932168544592,-0.00022086697655317582,-0.00118617316681054,-0.0003872272166969457
13.499999999999968,-0.008467661486901819,0.0024402130101373667,-9.804185801497574,0.0014329300628070528,-0.0006564185452162635,-0.0003039458874745195
13.599999999999968,0.00047745427442373015,-0.0029491926709078755,-9.810519905471018,-0.0015621787290282182,0.0003717548235701784,-0.0009011454322683303
13.699999999999967,-0.009569615679966009,-0.015881262039021505,-9.798389983693387,-0.00014060910129720512,0.0011494919823800001,0.00028634799955266704
13.799999999999967,-0.017033609262959156,-0.010836964308948649,-9.802420680260594,-0.0007656827141910406,-0.0010903440488749822,-0.00016533262023557627
13.899999999999967,-0.0017696716275625829,-0.01011867399093296,-9.813261452556135,-0.0004784926733363041,-0.002589989637458934,0.0005167102263700257
13.999999999999966,-0.008113749663534245,0.013044394247585776,-9.821501242352594,-0.0015795983797213585,0.0011876239439866795,-0.001571008223770117
14.099999999999966,-0.006361742693791665,0.00597336718485879,-9.813296461000549,-0.001655471968909235,0.00018803523461163434,-0.00018027582638033016
14.199999999999966,0.012838550640677127,0.00588647904010331,-9.779642857018885,-0.0016458940359794759,-2.1674753294791395e-05,-0.0010526072109246646
14.299999999999965,0.011547505008320106,0.008218379777534849,-9.80245962173449,-0.0007773319565853868,-0.0007451515753835625,-0.0020156324142889775
14.399999999999965,0.017095001419088596,0.005082192942963249,-9.812608599505197,0.0009335153435389998,0.0007509155366343596,0.0009893118647979965
14.499999999999964,-0.01623537444586506,-0.007138359429967399,-9.808045580189326,0.00035542114521006974,0.0009572348634493511,-0.0009945876817305426
14.599999999999964,0.0012720913577777657,0.022053537919765432,-9.803080780223892,0.0008705628841074635,-1.9187270266965662e-05,0.0007816750750619952
14.699999999999964,0.018039897866977392,0.00106641987264335,-9.797760215951728,-0.0008751393783314361,0.0005900987666308312,0.0009182649370385569
14.799999999999963,-0.007520033792581955,0.010981241985488952,-9.816752465960331,-0.0008052392575398221,-1.1923511051287393e-06,0.0019460382026665686
14.899999999999963,0.003091529530728036,0.009357847820544649,-9.8173179772131,7.749745574279869e-05,-0.0011765563699870866,-0.0005570577136924041
14.999999999999963,0.00835640668792203,-0.0003839730591109033,-9.79548703657856,-0.00020241644121068043,-0.00019793592747244392,0.0012907304076589389
15.099999999999962,-0.006486165056131792,-0.015197646058401793,-9.796987230792116,0.00041418787594288333,-0.002165194947578218,5.857838237928854e-05
15.199999999999962,-0.0040378699918331715,0.017448396601192767,-9.817289914132184,-0.0005807680557235481,-0.0009104008234735304,-0.0010400068232672818
15.299999999999962,-0.00700495920687974,-0.014359244744861313,-9.820311973812721,-0.0016065852366477576,-0.001497278719116752,-0.0015456255647528178
15.399999999999961,-0.0052115893426063825,-0.006836885455877433,-9.822264703976417,0.00047827087501953875,-4.807588156959902e-05,-0.0004179262820284341
15.499999999999961,-0.0046397327906010696,0.01592879561595842,-9.807601858921226,0.00047537832699466755,-0.002586039943876386,-0.0006396846140991289
15.59999999999996,-0.021710067840058748,-0.00426204327182512,-9.80626689853657,-0.0006742977670974341,0.0005186088302423606,-0.0010086998941510987
15.69999999999996,0.005758031475475504,-0.015536093306337848,-9.812616882513083,0.000419807198023843,0.0005359207882174326,-0.000113213075901597
15.79999999999996,0.019397142696305495,-0.004144198369822065,-9.814509957424693,-0.002759507465661304,0.0017689338244500407,-0.00035494779534855827
15.89999999999996,-0.011760154957169365,0.013209044470554892,-9.797644938765243,0.00010832562456606155,-0.0014349215686287294,0.00043302675249181467
15.99999999999996,-0.006213919884429843,-0.011707717953642572,-9.799566276328566,-0.0021325920863862115,0.0005671632573670581,0.00047340600781245376
16.09999999999996,0.020510108031226756,0.0032517383182992733,-9.830584314911638,-0.0008361209875707279,6.466692130559458e-05,0.0003696147658666161
16.19999999999996,0.009808160763437178,-0.019596757620790585,-9.813299496872002,0.000969860946102532,0.0015439697955424616,0.0018750751550585514
16.29999999999996,-0.003902191773644836,0.0109760525660642,-9.792882876575913,0.001198069523392812,0.0007236852620320248,0.0008418484734760467
16.399999999999963,-0.007898843116016184,-0.014472497710144513,-9.8001715207136,-0.0003470668083827981,-2.8133580718402724e-05,-0.0005646682949330495
16.499999999999964,-0.0039290684184968,0.002327493946858871,-9.820218593741917,6.850001191677457e-05,0.00024605487522907747,-6.330344791232793e-05
16.599999999999966,-0.0074362980765440515,0.007866198535183534,-9.791273630360067,-0.0006012429598064242,0.0012344628506279734,0.0009033162464621788
16.699999999999967,-0.026532517180506723,-0.007611940999464197,-9.816358403045854,0.0007817715507811525,0.00018848788103748826,0.0004884504918656658
16.79999999999997,0.006362788678712625,-0.00898916714842333,-9.817465499515011,-0.0012228889627133085,-0.0001702705994069669,-0.00010505058742029825
16.89999999999997,0.0017120532699964489,-0.0072730762609180075,-9.80093475401857,0.00091711081594187,0.0015465188086681006,0.0007253607334513539
16.99999999999997,0.0018551123846931585,0.0067242397285265125,-9.80390248210747,-0.0006518148999055419,0.0012893853417116849,0.0017325712090774578
17.099999999999973,0.01976953180409848,0.0003522570904641089,-9.806757295567019,0.0004163588905214927,-2.545563200592299e-06,0.0006333420440907468
17.199999999999974,-0.0012117985080724364,-0.001937834037481431,-9.792410178310135,0.0001647154399018857,6.701020107735467e-05,0.000896072773786551
17.299999999999976,0.001503329624493145,0.0029162225720926363,-9.81063564176479,-0.0012204164921552978,-3.0971715777287944e-05,-0.001122831042095949
17.399999999999977,0.002101512256908466,-0.0118143821319941,-9.800832908684502,0.000749234765598837,0.0002804282522536182,-8.607993418711764e-05
17.49999999999998,0.004163012795349906,-0.01964998337258153,-9.820968198966984,-0.00014873326311395056,0.0003452594335425641,-6.534160387151484e-05
17.59999999999998,-0.010046101383842826,0.0013344603462109247,-9.81453700422469,-0.0010685970433971256,0.0003295020150838884,-0.0001959238131906601
17.69999999999998,0.011964831756964512,0.006655320669543341,-9.802653286661537,0.0003216666235060605,-0.0008451779772276555,-0.0009215725229276725
17.799999999999983,-0.01471158097691097,0.028790124975636024,-9.820794447891528,-0.00020983183445547337,-0.00036038916543672126,-0.000267042773437077
17.899999999999984,-0.00584050506346426,-0.01868344849270662,-9.819981937374932,-0.0013906695302272549,-0.00012677959099357684,-0.0006701443295641319
17.999999999999986,-0.0068718025889359735,0.002158792456483957,-9.815827850788583,0.0009320941366718141,-0.0003861797863089442,0.00023921203249446256
18.099999999999987,-0.0132529671809268,0.006568730209019389,-9.814051833927193,0.00040875808329028055,0.00033000516778113,-0.00015938761909469948
18.19999999999999,0.002174391162949263,-0.0038529643595278736,-9.796538902496588,0.0009342888546843546,0.00048249426079874765,-0.001166084646878419
18.29999999999999,-0.010993056555807937,-0.00663861569381697,-9.812450025435544,0.0004480156689893388,-0.0008965378486453056,0.0011911300727508183
18.39999999999999,3.5948260408600284e-05,-0.020127817747014047,-9.814753171130594,-0.0025851852844817748,-0.0007517287068932562,-0.0005350716096298025
18.499999999999993,-0.006104101345698859,-0.003252535422573413,-9.813941018148823,-0.0005937343536013118,0.0015024969120468333,0.0012289587183664868
18.599999999999994,-0.011418406567898389,0.012538998985134067,-9.826213674818806,-0.0008146121697170767,0.00152519274590198,-0.0022254966274373785
18.699999999999996,0.005747856629329532,-0.012534941165597332,-9.81144000124803,-0.00018020321070289202,0.0016972042117047923,-0.0007965464934513321
18.799999999999997,-0.0006901518324670536,0.006270198155852067,-9.812517774914634,-0.0008220673267654407,-5.919977985202037e-05,0.00010756867374351016
18.9,0.00884055433909044,-0.009430523456034779,-9.814491305134881,0.0003229426895242536,-0.00016716743733737296,-0.00017122280128337454
19.0,-0.00017003103324145883,-0.006958394882368929,-9.817996904016328,0.00044073017860946176,-0.0010951000927916445,0.0011794415229475828
19.1,0.0021730491319659003,-0.012765410915686231,-9.807169730042848,0.00016727859908564113,0.0007621613837839642,0.0011729074871779368
19.200000000000003,-0.003664191156646492,-0.00707762707706492,-9.816059815438877,-0.0009810884288009164,-0.0007464415668311317,0.00029856059556686255
19.300000000000004,0.00015265812818831474,-0.004913570072329201,-9.817382558107825,0.000347886269511483,-0.0005015990127218578,-0.001026098336703808
19.400000000000006,-0.0015167485760614445,-0.00264493598094959,-9.820700412930968,0.0008271763562614096,0.0008460124298546868,5.495233843819359e-05
19.500000000000007,0.0013104036890904667,0.0052730809974657865,-9.810309224722637,0.0008912922446426618,0.001656008484699485,9.45519447263213e-05
19.60000000000001,0.004402534239769614,0.008734516679613615,-9.813380428067987,-0.0011283045171918838,0.0009060008153461884,-0.0015547052035823805
19.70000000000001,0.017888366900220696,0.008704334283821108,-9.808123088304898,5.109593390849361e-05,0.0017513579481129395,-0.0009321665523008526
19.80000000000001,-0.011601934603236257,-0.0059813592471214365,-9.812617974840702,-0.001006469240395529,0.00015386107357095693,0.0001500046041593055
19.900000000000013,-0.008138571479878206,0.01603052652443563,-9.82392073939878,-0.0012767228586553112,0.00037612003170845067,-0.00019342297001510741
20.000000000000014,0.004177268549207723,-0.006189706209377594,-9.820333397780175,-0.0006455434737566845,-0.0006835953070360038,0.0005390561776389569
20.100000000000016,-0.0047995835397381835,0.007614303774911797,-9.804119246541951,0.0010405963323004662,0.00090071902882521,0.0007984132493212492
20.200000000000017,0.007698529690098654,-0.005166922695242262,-9.812618841417404,-0.0018301271358594365,0.0002917505618925979,-0.0006597052263032463
20.30000000000002,0.00401545464350541,0.005274840785806093,-9.823520937045954,-0.001013839365993551,-0.0003493463357508016,-0.000503539711379674
20.40000000000002,0.0016702018413550749,-0.01155423766612398,-9.809528216678448,-0.0016884855418139904,-0.002155110359495152,0.0007307248491933695
20.50000000000002,-0.013053134891160653,-0.005599177076003233,-9.824173629368506,-0.0014088707900688276,-0.0003988565596959592,-0.00039606690073391284
20.600000000000023,0.009825871324379863,0.004495120109139265,-9.81261118537331,0.0007576835306606205,0.0011165542180070643,0.0004253597196641382
20.700000000000024,-0.004063161378255665,0.010186033766185786,-9.79231478373894,0.0006605343187117256,0.0017706765904007432,0.0009406609222514684
20.800000000000026,0.008488585831285514,-0.010901864849177042,-9.821135493459717,-4.948348466500732e-05,-0.0016694576939036156,-0.000578891540809327
20.900000000000027,0.00867337394201239,-0.006651554180197803,-9.804668089813443,-0.0013512508965598732,-0.0004936410171861117,0.0010375029736719448
21.00000000000003,0.0020851243688529745,0.0029028252717784747,-9.792952761684054,0.0012968035024879467,-0.0008768569031977257,0.0013319614328772534
21.10000000000003,-0.006152441226468611,-0.00017589832719863276,-9.809847869155313,0.0010730402468735138,-0.0011292666384327423,0.00046592397209393793
21.20000000000003,0.005240148795796721,0.008115132728378955,-9.812103857973268,0.0010034122333710785,-0.0007115439859527487,0.001161122110901539
21.300000000000033,0.0035224016801023096,-0.01400082899212773,-9.805920796616585,0.00017930459377802474,-0.00035565634445261957,-0.000722189964497965
21.400000000000034,-0.00240192956823039,-0.01442157013194299,-9.793092805359159,-0.0011282788050680386,-0.0006612831040067043,0.0011589629685723013
21.500000000000036,0.005850308456055861,0.007202453713222604,-9.794832915488,-0.0003121427356736696,-0.0010464949240388077,0.0008583321713337239
21.600000000000037,0.007962782902357137,-0.003268894213447173,-9.822655799233356,0.0012391505515789195,0.000575847388165508,-0.0013594094378340117
21.70000000000004,0.007799538165262155,-0.01440977405082379,-9.814826304413204,-0.0011233094506905685,-0.0006378305722889596,-0.000819246239070562
21.80000000000004,-0.006133108128398762,0.007242639620470163,-9.80705409032943,0.0006287316020446637,0.0010923421235429413,-0.0003586374500848934
21.90000000000004,0.0007989468325418829,0.005381529978376386,-9.792932614274012,0.000899078253382037,0.0013815511554204174,0.0010330300666907555
22.000000000000043,0.01057265417473393,-0.017846701659189487,-9.801191408057766,0.0002129248467187966,5.4214374395357916e-05,-0.0005131895068224057
22.100000000000044,-0.00425274078280645,0.0041618073882703195,-9.801600242364216,-0.0014977856049331647,0.00021810382065939288,-0.0005466208562238176
22.200000000000045,-0.009508027663214394,0.003926222752782189,-9.813287178318951,-0.0006590366806742368,-0.0007691650364151526,0.00029536506486710275
22.300000000000047,-0.00010038274251463825,-0.010916403769587453,-9.818409976297561,-0.00018250647964381973,0.0004051478101302095,-0.001035647991038046
22.40000000000005,0.00488106592929435,-0.008240027246128722,-9.782722554013008,-0.0009410028621366267,-0.0007901255402876283,0.00020807018598068293
22.50000000000005,-0.009023809671624451,0.008276312306042161,-9.791985836532433,-0.00038761980410959154,0.0001727710412144404,-0.000503692555475068
22.60000000000005,-2.8890981522643576e-07,0.014317344185030516,-9.801057538022933,-0.0009042249335038825,0.0015459043652157056,0.0011761287413470333
22.700000000000053,0.004863683187340932,-0.00659217416319285,-9.809342924602644,-0.0007954659408712334,0.00046760576967194863,-0.00030240338124029625
22.800000000000054,-0.0223496202878047,0.00926203056277368,-9.80808546962317,0.001078483069134095,-0.0001361797331462486,0.00020253464333989019
22.900000000000055,0.011153261444867018,0.0038779707142873898,-9.807119982697822,0.0032143909719092338,-0.0001690001908209504,0.00018325407947849254
23.000000000000057,0.017340287011737315,-0.00805007701528497,-9.820409973014852,-0.0014320658005825043,0.0005336624593453384,0.0006396993876386999
23.10000000000006,0.007414876465549203,-0.013535600800467035,-9.799941408405182,0.0011972658813934152,-9.731132465768487e-05,4.663542136116219e-05
23.20000000000006,0.006755957782622037,0.00367143500143,-9.803580303349568,-0.0010860860579650238,-0.0001746223857264095,-0.001198404091714787
23.30000000000006,0.006312769520562473,0.00530216462276712,-9.81098814990808,0.0002967992294103342,-0.0015565163581309689,0.0008719948525017035
23.400000000000063,-0.004672710699218704,0.0012905101341572612,-9.798846302810215,-0.0007565006082748553,0.0011972335181812707,0.0001381452165902746
23.500000000000064,0.0002819015551787851,0.00556045568363087,-9.822470255824669,0.000594106177561087,6.150945870525086e-05,0.0010503471927736843
23.600000000000065,-0.0021680703129531064,-0.0036331744678200248,-9.806303618473434,-5.936779252416777e-05,-0.0011739686745612513,-0.0001798871770548234
23.700000000000067,0.012676300198541907,-0.0009310372586669182,-9.818704599607678,0.0007159370052169774,-0.0018534436702744802,-0.0021061963688268556
23.800000000000068,-4.1502961731772084e-05,0.0018092523086431333,-9.807796007883738,-0.0008927828911915724,-0.00015049962013518662,-0.0013846620421102184
23.90000000000007,0.00219562310680947,-0.01615318854579781,-9.811492427416793,0.0002615793111329703,-0.0017566256994238636,-0.0005084313828021092
24.00000000000007,0.007881462464150732,0.01548967883590638,-9.825039602882518,0.00033991845843155073,-0.0012359493747154482,-0.0013311861249791174
24.100000000000072,0.01596073831064355,0.0066818223584973555,-9.81804194297329,0.00021902766882990398,0.0006419463362638245,0.00019536486841748908
24.200000000000074,0.022472787436994397,0.0060577914113838505,-9.83992981620429,-0.0002901997625670946,-0.0007365762178923174,-0.00019007422309265257
24.300000000000075,0.00013465896299126338,-0.006511429259683605,-9.82084917605996,0.0013634054909427084,0.0005973419939485672,-0.0006566664559339133
24.400000000000077,0.006796496534340393,0.00675180566507227,-9.797326925388537,-0.001055313326575193,0.0007798816293547256,-0.0005937151008310783
24.500000000000078,0.011550445713591536,-0.0019244915469604435,-9.8327177923264,3.535397368653716e-05,-0.0017841625220166666,-0.00020307583806233477
24.60000000000008,-0.0005819163020514709,-0.004013050158100976,-9.824869198852985,-0.0011157289072186787,-0.0008445905993324864,-0.0002340346740310783
24.70000000000008,0.012884997799132311,0.007090854303742486,-9.814721952334896,0.0012738777053993519,-0.0013680624871013928,0.0006990956132025213
24.800000000000082,-0.0017523470020174476,0.002363247906446195,-9.803615378054543,-0.0006795750166152891,0.0008011581338869036,4.7646625416154176e-06
24.900000000000084,0.024117989020868334,-0.0030426108521026886,-9.797308251634687,0.0006470904259956914,-0.0011741264164507174,0.0013746972479387399
25.000000000000085,-0.01060410803627005,-0.02231995170382012,-9.801466843139881,0.0010689533852881407,5.202563106261304e-05,-0.00024694394255353724
25.100000000000087,0.015836817994910327,0.007118680737856396,-9.816558659237279,0.0007315329796359694,-0.0012432916297202023,-0.0005448922016255906
25.200000000000088,-0.010511300322009207,-0.02200017380038361,-9.821772925474555,0.0012223279030800635,-0.0010978218788619439,-0.0005359559232807639
25.30000000000009,-0.011609736833209554,0.008656072166240774,-9.809988025518328,0.0004907452935681659,-0.00010568678053148798,-0.0011569504911504353
25.40000000000009,-0.00973942795593724,0.00837265940301249,-9.810574066955171,0.0007744016887233798,-0.0031625958705076944,0.0011241855873828348
25.500000000000092,-0.004939671893448028,0.021728572463956385,-9.815107550832082,2.8268871679493148e-05,0.0006603776289974964,-0.0008617179319771022
25.600000000000094,0.008727379309639394,-0.00645215908855314,-9.797108969117739,0.0007932062567348767,0.0004956366466260381,-0.00071011656803812
25.700000000000095,-0.002105711685887339,0.002999116083596886,-9.830333427405439,-0.0005517492964661896,0.0009380735038914359,-0.0012541027789998035
25.800000000000097,0.01278978307558204,-0.006283151880367162,-9.806767426569596,-0.001147663849708227,0.0004843782644284401,0.0004768064145234942
25.900000000000098,0.011363739576155819,0.013540701033107998,-9.79746476308297,0.00020891898377787882,-0.001226164118362896,0.0013378438573646387
26.0000000000001,-0.013041347358059513,-0.004387098303357449,-9.80262891390959,0.00044355769183504484,0.0015930653836247564,1.0025742298161653e-05
26.1000000000001,-0.016900689730990962,-0.002752584046412137,-9.80825939510587,-0.0003506090274352232,0.0014124535516900458,-0.00023353304522461603
26.200000000000102,-0.014358472999438883,0.004667894656183759,-9.82147685216899,0.001699892339660947,0.00027009420476700605,-0.0013892044280780734
26.300000000000104,0.010793918268290181,0.023692465481582558,-9.830040560530376,0.0009030735089709537,0.0004840275803395181,0.00018976066913335577
26.400000000000105,0.0034332842012701928,0.004918856648421284,-9.816930048353472,0.0014109898381177775,-0.0013495241610180456,0.0019726441564246553
26.500000000000107,0.015276872162146512,-0.011861350466098094,-9.810054001310005,0.0014198589871443198,-0.0004909944335048412,-0.00014832734576045113
26.600000000000108,-0.00402377397972819,0.011674728080056608,-9.816076827531242,-9.825594514960836e-06,0.000540215401868224,-0.00019352009544015147
26.70000000000011,-0.008664315256792296,-0.013415486022819863,-9.825182564386058,-0.0011798042502785644,-0.0017205495539871147,-0.0007127947517385002
26.80000000000011,0.0030021480525856347,0.0005409536881569749,-9.818266330811653,-0.001018018955382917,-0.0009933885629183766,-0.001373815560839919
26.900000000000112,-0.012358775777497444,0.007143615737723078,-9.824046115068752,1.731584864875917e-05,-0.0006180538501501635,0.0024420273779199447
27.000000000000114,-0.017969280332746064,0.0019330085492571835,-9.813337505939979,-0.0007711303644799204,0.00031521295429214605,0.0001696679432099619
27.100000000000115,-0.010689051640762384,0.004262773588426122,-9.80610831421331,0.0013094697232444556,-0.0006099712132874226,0.0014845282012179856
27.200000000000117,-0.0019681735829735402,-0.019760123510226112,-9.804769041992754,-8.159020676334971e-05,-0.0008823509559363621,0.0009473245504407586
27.300000000000118,-0.004716282842632509,0.010168856077002486,-9.810827011276135,0.0007503217358086836,0.0006794777611506858,0.00048725256966306675
27.40000000000012,-0.010320434291724521,0.00919712977160328,-9.809782382749724,0.0020022607736458,0.0004786698832950642,0.0007652113375125124
27.50000000000012,-0.007648929555202142,-0.004061415855975867,-9.809032820056707,-0.0011704760418537006,-0.0011702773699142448,-9.449720003115675e-05
27.600000000000122,-0.0007787119892940478,0.00202074886828616,-9.798828958659959,-0.00040033736214773743,0.0006808757090562669,-0.00013054931802072698
27.700000000000124,-0.0019401191453756294,0.0025706805218789174,-9.830677282715296,6.635686450734092e-05,-0.0006382574745409534,-0.0009157520539135845
27.800000000000125,-0.018869914173722035,-0.004428910909670608,-9.82877436071873,0.0008701231593616142,-0.0002393073192830462,-0.0016679848210339708
27.900000000000126,-0.006735248747306768,0.007549537519938415,-9.815948834668152,-0.00028121780617759696,-0.0003691832141706423,-0.00011418867591699544
28.000000000000128,-0.0169976704345002,-0.0004545967794281056,-9.815580926962118,0.002953779264139932,-0.00021300837995416545,-0.00044153668046454275
28.10000000000013,0.009884770070036552,-0.0015603216950516802,-9.807466578092523,-0.0008741159665377923,0.001555228070446301,-0.000613586280098836
28.20000000000013,0.003753502826193704,0.011323575308822444,-9.813045049241515,-1.490498648908829e-07,0.0005865133672130857,0.0006967707993081577
28.300000000000132,-0.010900979849886711,0.001814832299213445,-9.819453690355829,-0.0007453702060845657,-0.000648391176584059,0.0012300672307766353
28.400000000000134,0.015965773341210035,0.02605452593879662,-9.810565504183803,-0.0008414068818360764,-0.0009694817709901686,0.0016215706709478573
28.500000000000135,-0.015383781991551531,-0.0031696855848320597,-9.815660630458678,0.001749995274006127,-0.0010133440989579458,0.0011157537270524848
28.600000000000136,0.0131335307429686,-0.0016677002654309433,-9.805345047052356,-0.0015387143314075462,-8.820781182612655e-05,-0.00020093615486415883
28.700000000000138,-0.02579582644851874,0.0041537696848543025,-9.806448335831838,-0.0016933760502015254,-0.0014122758293094117,-0.0007351977255130324
28.80000000000014,-0.005291817822923829,-0.0030636589590490506,-9.819581242311465,-0.0010078571307469862,0.0003065132438008009,-0.00046115609469597806
28.90000000000014,-0.001068006033774055,-0.002296798689463925,-9.805427996898942,-0.000154274881983113,0.0008615394691474236,0.0001170910012184971
29.000000000000142,0.008890342984703948,0.012470822250051201,-9.824604754563616,0.0009219951214159729,0.001782822148400609,-0.0009584361177278866
29.100000000000144,-0.0003187070750064483,-0.0035720409412649153,-9.805591660679305,0.0005199918729810444,-0.0006692956022405149,0.0013266500761351476
29.200000000000145,-0.0085668081168761,-0.0013831895369896985,-9.799764077164339,0.0019534378919694737,-0.0005126552424803987,0.00079638871326921
29.300000000000146,0.002200417047155449,-0.01582443659846665,-9.819551882591442,-0.001204770767535699,-0.0005033170552041598,-0.0004026935085491033
29.400000000000148,0.0002794879375551491,0.012776939313762004,-9.805775238195276,0.0026530626560608735,-0.00024342794165644292,0.0008033481391926919
29.50000000000015,0.004144116946943431,0.015065666925786186,-9.813787160550962,0.0008452578464582506,0.0016290727571493574,-0.0007067170598287915
29.60000000000015,-0.0007487166161865965,0.0050430630616938,-9.814347794505478,-0.000875244066355259,0.0018327329958645379,-0.00021555374196549127
29.700000000000152,0.017340930915713034,-0.005084253162339522,-9.81207088917546,0.0007971391463071966,-0.00020601914651240553,-0.000884771200165937
29.800000000000153,-0.007199111834048551,0.0027267235834262933,-9.816661140181843,8.806775356544921e-05,-0.002257285851068713,-0.0005440247389908271
29.900000000000155,-0.0018031175679170345,-0.005126417054614768,-9.819935866181668,-0.0008835045797680569,7.052089074637315e-05,0.0015011576549896534
30.000000000000156,-0.013984263405326625,-0.0027626020994059187,-9.800229503973142,0.0003344578549171757,-9.375738175076066e-05,-0.0004366138681428532
30.100000000000158,0.00013261885283804236,-0.0010106411678041246,-9.831864617615484,-0.0007157832312873051,-0.0019495889195944886,0.001305155874643637
30.20000000000016,0.008226485065399655,-0.007882340919654517,-9.801951222354445,0.0024486474921016172,-0.0006230764610587126,0.0013133750778454869
30.30000000000016,0.003625051167411656,-0.0023669921987108265,-9.821059105499739,-0.0005559250524055705,-0.0003949125162879612,-0.002301675032009838
30.400000000000162,0.005304618712530338,-0.003217312948341934,-9.805407557830298,-0.0004192272263185087,0.002998272743459456,-0.0016431834035093745
30.500000000000163,-0.009330594546872397,0.007052054431518636,-9.786415322590498,-0.0009924186997796606,0.0018292148950033952,-0.0009029275281162507
30.600000000000165,0.012933671239448538,0.00075394548905093,-9.787700014594792,0.001781985267381874,-0.0006477226709721486,0.002949803998785827
30.700000000000166,-0.011241588614917154,-0.00313620692582917,-9.791920968625124,-0.000734783105706167,-0.0006413513552614299,0.00014473359448533934
30.800000000000168,0.004524866714997015,0.003871823101979803,-9.817456973521885,0.0001968935157759268,0.000637425408691066,0.0015180944671624517
30.90000000000017,0.0032816048821162898,-0.0125297943824901,-9.809715825027645,-0.0006205935725480949,0.0013190309085105703,-0.001661317949769249
31.00000000000017,0.005597331386976768,-0.010653963023523108,-9.797279428762943,0.0007711621237366316,0.00021933114193041292,0.0005190439509455343
31.100000000000172,-0.003368800787803611,0.006757772924750197,-9.810496266822621,0.000731204006844684,5.857627564784104e-05,-0.002467085543998097
31.200000000000173,-0.005136576840557472,0.0151749245092277,-9.795474597843643,0.00010454912052202897,-0.00012603357810633275,-0.00032114149004438083
31.300000000000175,0.006305609042005433,0.005790377243486634,-9.819790918389716,0.0006616501445291856,0.0012328966110014509,-0.0009407574503326827
31.400000000000176,-0.001868413340423335,0.004635648402282782,-9.80277247032554,-0.00042053510001203786,-0.0005286775889912143,-0.00044977724434044707
31.500000000000178,0.0038523261923320198,0.0042911911519047455,-9.810194175438763,-0.0013642239554257415,-0.0010899868119191238,0.0006509328709098899
31.60000000000018,-0.012210882131087215,0.002263570379971178,-9.813607976217012,-0.0006022285061187317,2.669846136539646e-05,0.0016904616865124182
31.70000000000018,0.00288816582066866,-0.002956657266256853,-9.82473371592936,0.0005122384083312601,0.001136703353702554,0.0006214864054012703
31.800000000000182,0.011659541072399476,0.004765981778375144,-9.82303274809083,-4.494976084962289e-05,0.0005248679834358567,0.0007351226579497398
31.900000000000183,-0.004930764403283314,-0.0006336534569112102,-9.806341303577177,0.001271293016796746,0.0010052388017895396,0.0006604302395041538
32.000000000000185,0.003962225626846912,-0.010252813667917565,-9.821009598156428,-9.18546545866658e-05,0.0010415833830758026,0.00040946614123050763
32.100000000000186,0.005610959353166029,-0.015015559120508,-9.824616537565063,0.0011198838265349823,-3.4638428394259075e-05,-0.0012995743474708405
32.20000000000019,0.008821674262169477,0.0025803616134093266,-9.780485357254923,0.0012500004473316088,0.00034669732463048333,-0.0001369952044528472
32.30000000000019,0.0023229550813689704,-0.0010265217081063332,-9.824387967148215,0.0009275221197205532,0.00027485751749402,-0.0027405915948954585
32.40000000000019,-0.006355232251350402,-0.008287418391076249,-9.800191098173308,-4.405519010159131e-05,0.0014874068545664904,-0.0015774035526590583
32.50000000000019,-0.010757861164901154,0.010670945267244608,-9.816552213513175,-0.0010586323916206477,-0.0005266714026610138,-0.0007457073649287497
32.60000000000019,0.00539327847291872,0.011181676111568416,-9.825869192311314,-0.0002907764941934657,1.4243879742711231e-05,9.631141707253979e-05
32.700000000000195,0.008332555696612187,0.00119847106147557,-9.815798033569868,-0.0011118935209405625,-0.001824709271360341,-0.00035699324312731353
32.800000000000196,0.0001440987496422436,0.009217248810889792,-9.813777691115407,0.0023237042742558934,-7.647958605993008e-05,-0.00046922417472944377
32.9000000000002,0.003805952618816213,-0.009705589546398406,-9.807910919586591,-0.0020640968549849436,0.0006760940759111317,8.07991662438944e-05
33.0000000000002,0.0021057078254514854,0.0015480875799999516,-9.822737560690936,-0.0008986213938188806,0.0015664249130887768,0.0005087190285198186
33.1000000000002,-0.005972632802216175,0.004210805545678483,-9.805922890992978,0.0019544844633557325,0.0011103508858669718,0.0004252910963984459
33.2000000000002,-0.004491852420964507,0.01783689915136641,-9.811015486521114,-0.0008705119223017634,-0.0012202464859202824,-0.0008482731605428115
33.3000000000002,-0.0036408524416704515,0.007654014831163175,-9.800868145762411,0.0011510697836854033,0.0001529766949851929,0.0008456168938648894
33.400000000000205,0.02259315575836879,0.00910289420520676,-9.793971174254638,-0.0015106385510916757,-0.0007417989506465258,-0.0007369895858988105
33.500000000000206,-0.026770342430781465,0.000736782726815642,-9.796075510071882,-0.000535316878876664,0.0001954422308839413,-0.0008399277963424974
33.60000000000021,-0.004917276448635341,0.0028530984251826856,-9.821957757718799,0.0011740330310943158,-0.001918759193167171,0.000336361530769778
33.70000000000021,-0.0049148177270312765,0.014891447450457528,-9.802381549080707,-0.0020841591413219675,-0.0024223966069821965,-0.0009872279092082226
33.80000000000021,-0.005022263776157665,-0.001890069406592009,-9.809697545916357,0.0006735960181141722,-0.0013659907130774355,-0.0017864170624162035
33.90000000000021,0.002524614630050099,-0.003609810112184397,-9.811033733323226,-0.0006418298464426032,-0.00017320876420470538,0.0015006375957527629
34.00000000000021,-0.01623270295133161,-0.012255304483995895,-9.803583983974814,0.0015674077665995358,-0.00020564890732406376,-0.0012485840414852062
34.100000000000215,-0.0200111994520767,0.0026054244674376787,-9.822493542213518,0.002175578925637919,0.0023416035359052696,0.0002404342570718616
34.200000000000216,0.0048546170159708595,-0.0011791274245121647,-9.798582043387556,-3.0704777281344616e-06,6.335675260431281e-05,0.0013745373961010427
34.30000000000022,0.006261825197612685,0.021309812839170758,-9.826368295559073,-0.0005555824180790634,-0.0009039060151078753,0.0008559144885442962
34.40000000000022,-0.004935903527028892,0.006023319877887805,-9.821689879541234,-9.434109370116912e-05,0.0022969954397531406,0.001652504764877347
34.50000000000022,-0.018785319339207487,0.0036458646424691954,-9.801736470790859,-0.0004934074057272609,-0.0011023803046668458,0.0006761255852350213
34.60000000000022,0.0010082543006853853,0.005525408685957296,-9.811580514351576,0.002331165182486843,-0.0009138410809898124,-0.00048185969323653736
34.70000000000022,0.005148854567040885,0.00731741763658122,-9.823787136307706,0.0012973127137701748,-0.0014581184448190483,2.0539942317694538e-05
34.800000000000225,-0.0030702663057136353,-0.007076248109417969,-9.798667495703794,-0.0023470527842730437,-0.0007307828123056779,-0.0008886221864574851
34.900000000000226,0.008748974068133323,0.015504213160135774,-9.802245312264553,0.0013952850221761693,-0.0022245542177124545,0.00017774312703149538
35.00000000000023,-0.013830333961679573,-0.0037496538762347167,-9.807553283513611,9.462460132282483e-05,0.0013757537967745387,-0.0019644909491052997
35.10000000000023,-0.008357364497674116,-0.014806299853682712,-9.826387907970767,0.0010057794381356229,0.0001824188380472171,0.0015707595815072795
35.20000000000023,0.011852063376633004,0.0006815024693528814,-9.819696163810926,0.0009917917931011432,-0.000691603065594482,-0.0011852765805959716
35.30000000000023,-0.011504101096608724,0.0012185711246740446,-9.797344701535488,5.260881697827562e-05,0.0012244285322908545,0.0001054907771320348
35.40000000000023,-0.004264487668592376,0.02721173739044832,-9.791789554700843,0.00019690697977147158,-0.0008321947285442038,-0.001594879241986635
35.500000000000234,0.004013576309743979,-0.0025551172770915597,-9.805329991881619,0.0003230412210389498,0.0004362761814423121,0.0011563793727760812
35.600000000000236,0.003142198753896684,-0.007234440328459118,-9.817705485599852,0.0005831268650353936,-0.001071826954371577,0.0007324955298858143
35.70000000000024,0.007141934107186635,-0.0004388348915623074,-9.81781423276636,-0.0017763387305154213,-0.0011239649623130737,-0.0016117750460997863
35.80000000000024,0.0002667109233694199,-0.004422875371588646,-9.819206615370303,0.0008726054709082737,0.00012932788545356034,6.174352911178117e-05
35.90000000000024,0.005581167804822794,0.010364524461402244,-9.826028239875148,0.0007066798465574407,-0.0018089367993045459,-0.0007802252476785594
36.00000000000024,0.0101214557856611,0.006912224994756001,-9.803352591040078,0.00018208490561077105,0.0014129765562660129,-0.001526640755437324
36.10000000000024,-0.00305155313314902,0.00047349051601796514,-9.789647148418618,0.001026549906175268,0.0010384276626818627,-0.0007471837047526654
36.200000000000244,0.022496615540466076,0.004718083593354464,-9.820059244291208,0.0023453592970869978,-0.001426908208722563,-0.0008545361186500273
36.300000000000246,-0.0023400107574901626,-0.00980419737782284,-9.804727888037162,0.00027676268596731404,0.00011350831680232691,0.0019079723348220396
36.40000000000025,-0.0163396916737022,0.013663857682669938,-9.818246518295751,0.0014621639029858144,0.001905213993186392,0.0023157204682779492
36.50000000000025,-0.0019051428322037997,-0.011632594691967818,-9.80672073901916,-5.3368568328445165e-05,-0.0017628493853946647,0.0007497143920966994
36.60000000000025,-0.009226779694002417,0.014420088242413911,-9.800348364036601,-0.00028133739204335285,3.6164361969480724e-05,-0.00022839581458740922
36.70000000000025,-0.004573933017078719,0.030983106569913765,-9.81936196881248,5.533758850272924e-05,0.0009914715704968187,-0.00037016555314439855
36.80000000000025,-0.006285427878650274,-0.013291010474101146,-9.798079646672491,0.0007120029949357032,0.00046993361389369577,-0.0014946202200671044
36.900000000000254,0.005035828386788038,0.0028530440721251187,-9.813380637758952,-0.001376740795973979,-5.6682608259968534e-05,-0.0008566642181479352
37.000000000000256,0.0008003477556166226,0.0006334006332975936,-9.813381582638112,0.0008820234632358826,-6.605055615863155e-05,0.0005432670691906451
37.10000000000026,0.004184023317712546,0.010081731465237387,-9.819640596957235,-0.000345304846464682,0.0009219945076384301,0.000167715280488183
37.20000000000026,0.011258052528212673,0.007452427958666733,-9.814446800773704,0.0008805109402769709,-0.0002574857377902735,0.0009707893459552883
37.30000000000026,0.018537644298144036,0.010915945069114532,-9.787104990825355,-0.0015515819351090716,-0.0005483748403923906,-0.0002521572628626032
37.40000000000026,-0.004002905414328943,0.0037244803952713856,-9.813681085428803,0.001106107424765034,0.0009847604849094569,0.0004276632819945583
37.50000000000026,-0.010122132875929231,0.0054737377912576195,-9.80325709984341,0.00035388543026848026,3.0007091808962965e-05,0.0014145273804713763
37.600000000000264,-0.0054838078069821255,-0.003666974718827937,-9.803329441388389,0.0005307912980750714,0.000852597525301646,-0.0002698155551114519
37.700000000000266,-0.013147060769008604,-0.01237582137534757,-9.81432672715091,0.0007924251658823569,0.0007922641831578515,-0.0018017132068846677
37.80000000000027,0.005338957718343611,-0.0008722657039841221,-9.820421058704108,0.0021907750313906425,0.00026395788635535537,0.000841616144506277
37.90000000000027,0.025675254359375583,-0.0058111940388048035,-9.813967901932907,0.0014890156591290105,-0.0013076709746803025,8.816960761402438e-05
38.00000000000027,0.0004621508676410812,0.009701810376804345,-9.805946091071888,-0.000913179867676414,0.0009722463264132091,0.0008593564181008999
38.10000000000027,-0.01051004096212432,-0.006878031941924819,-9.815258074968078,-0.001149340078072441,0.0010646668027850454,-0.0003096325762280019
38.20000000000027,-0.002778301838497915,-0.010377557310307787,-9.813945388560587,0.0014849516297738242,0.0007482882570363897,-0.0016031836835318821
38.300000000000274,-0.009897072859524271,0.006356010152932336,-9.8149812210248,-0.000553239559191642,-0.0008604921533184503,-0.0013168521588251196
38.400000000000276,0.00095289372865937,-0.003802719084945578,-9.798596221297338,-6.670794013480881e-05,-0.0009651711380260342,0.0007080260317448681
38.50000000000028,0.01346147316118024,-0.0073573691429843595,-9.827025759043783,-0.00047896604798920386,-0.0013499098134896834,0.0016558420115391041
38.60000000000028,-0.01387744560587586,-0.0032769485810977862,-9.795264783495488,0.0008712125278212388,-0.0005136613406111516,-0.0007688359604928422
38.70000000000028,-0.0018149656923346948,-0.0024015520254893146,-9.79503601446123,-0.00015466535431894822,-0.001349969833075344,0.0010000050628165996
38.80000000000028,0.010365328921808047,-0.002267960282057418,-9.802278749655091,5.124656438664501e-05,-0.0012067983307836017,-6.683840972557881e-05
38.90000000000028,-0.011446779564621028,-0.006341550753296669,-9.819388977479582,0.00033284487317345563,0.00018648370088106527,-0.0013054387995947755
39.000000000000284,-0.009198550223813337,-2.6920482464905175e-05,-9.805356320760337,7.224115743845751e-05,-0.002206794523370389,0.0013011500224098958
39.100000000000286,0.01772311689336489,0.015837926864531296,-9.804558960500824,0.0006719858863417023,-0.0006541923388313116,0.00020282844207336625
39.20000000000029,-0.011306290513005982,0.0012176034671322958,-9.824296929191934,0.0005852017686785785,-0.00035455597079752835,0.0007813235162066829
39.30000000000029,0.0018257375944692527,-0.004595593462194918,-9.801566740262826,-0.0011734047006751551,-0.00026485239850383143,-0.0005232844392140344
39.40000000000029,0.007439724211177065,-0.0007551526569496889,-9.807299812538144,0.0005254710258843971,-0.0023461154771154576,-0.0009120529821964455
39.50000000000029,0.0011592996031713134,0.010124758995708458,-9.804274122384646,0.0013107661680598732,-0.000221623872010695,0.00011495125304179756
39.60000000000029,-0.004997989996040178,-0.004356722536299252,-9.818304368517852,-0.0005432805934319569,-0.00019046822155804291,-0.0006372773686890964
39.700000000000294,0.0002657489683448823,-0.018186341132448634,-9.805720662001121,0.00017745684121052373,0.00044622878505572996,-0.00044921405656647527
39.800000000000296,-0.005082197082736117,0.009823609378503486,-9.811545037286889,0.0019865493835422403,-0.0014061176897476758,-0.00023307545957130366
39.9000000000003,-0.01127373573562985,-0.007867445825106574,-9.817899916145471,-0.0004807322777896102,0.0007828421108878142,-0.0011295978305921842
40.0000000000003,0.006100117416593373,-0.014408877550502122,-9.814055256717738,0.001319809368650454,0.0004620427891633347,0.00028658377163322984
40.1000000000003,0.00630105928122933,0.005759750148379862,-9.803719943566975,0.00140366303600116,-0.0010384543624201213,-5.6428195746513815e-05
40.2000000000003,0.006372688737983749,0.007496422852980515,-9.804419420893431,0.0013065365794206548,-0.0005009952454598233,-0.0013354011034039594
40.3000000000003,0.012723869182526291,-8.030414838557248e-06,-9.815486864004054,3.5759598795011616e-05,-0.00043227620895673814,0.001020535567821332
40.400000000000304,0.008901665586471822,0.0031173284682148956,-9.804591304115329,3.2607625240332654e-05,0.0010265089552451093,-0.0023489829713890446
40.500000000000306,-0.011681951212278803,-0.00039930531266928236,-9.814134773884293,-0.0009505155491785762,0.000619968559122598,-0.0009640374437073626
40.60000000000031,0.0021736126979302766,0.0012428970989642983,-9.809423030339854,-0.0008291847976306961,-0.00019316558314823537,0.0012412933785067842
40.70000000000031,0.0054352334473784045,0.009628387139793325,-9.810800819818539,-0.0017022831013102922,-0.0004664681753821682,-0.00013631058794759358
40.80000000000031,0.01301508162131204,0.011359538731928352,-9.8057515484556,-0.0008565276511003889,0.00012844721483935072,-0.0002473524964422561
40.90000000000031,-0.002435082570754397,-0.01233522100628583,-9.805360953472068,-2.9842761173669115e-05,0.0008043818191113485,-0.0014472348796528962
41.00000000000031,-0.011269817427096594,0.03646272359110586,-9.818800501288067,0.0002875827811631826,0.00043775511564075073,-0.0009677806487195682
41.100000000000314,0.017276071068295432,-0.0006562011500223983,-9.80850519959329,0.001818386334980022,-0.0007910209232827564,-0.0004732216004881568
41.200000000000315,-0.003455127985313398,-0.013726464186558747,-9.807241605315161,0.0004730539176055257,0.00018331995909350843,0.0006702653344114912
41.30000000000032,0.008656540773739469,0.0033870280751079175,-9.812414410867603,0.0012204166448235073,-0.0006966638711552233,0.0014108094645804304
41.40000000000032,-0.0019295637243760086,0.007648027670148331,-9.791734480229767,-0.002264797629743517,-0.00019226037889365327,-0.0003894780165572479
41.50000000000032,0.017073865242058322,-0.004068224035113281,-9.782709804981431,-0.0015279029036062398,0.00034950554794932546,-0.0003718114282639573
41.60000000000032,0.005050903334063788,-0.00565143695869421,-9.814510318930989,-0.0018228280374162728,0.00010817367141345895,-0.0014834095096816213
41.70000000000032,-0.013096689509570159,0.0008687007729730783,-9.81121349159633,0.00102708993322637,-0.0013531296008020125,0.0004355487884643374
41.800000000000324,0.00322500143639209,-0.0030237118185260452,-9.818036354538107,-7.909241046296576e-05,0.0008839859058325768,-0.00035919209423608686
41.900000000000325,0.008472950159292572,-0.0027380816834534456,-9.792752044321782,2.680350077385202e-05,-0.0001755423789338502,-0.0015962344333020333
42.00000000000033,-0.014271517903920622,0.003812902632740631,-9.812274498356764,0.0002812766082757891,-0.0006846418980253619,-0.00013581118691709338
42.10000000000033,-0.006236948005171223,0.002951986124107851,-9.812181640831906,0.0018646515976570072,-0.0006880771570816543,0.0011334744598556214
42.20000000000033,-0.010544929590114476,-0.004653321773704069,-9.81841543870309,0.0012596372318628471,0.00043698942638709624,0.0001518807309258401
42.30000000000033,0.0023445496194829554,-0.01084368351664796,-9.795970869968373,0.001389528882391318,-3.4299775258621065e-05,2.801730386549507e-05
42.40000000000033,0.006491355508756196,-0.0017525429657991645,-9.812001765060883,-0.0004928044699425399,-0.0003458907290353279,-0.00046124669367211596
42.500000000000334,0.007298529681182292,-0.0032829678269869172,-9.814283645200277,-0.0006268224058773054,-0.0014994967085559584,0.0015750616450684513
42.600000000000335,0.005085960400447783,0.008665007596057926,-9.815298975006332,0.0014572005767009152,0.00014520280543823971,0.0014675953263948657
42.70000000000034,-0.00013373475508112847,-0.00044664733820857567,-9.815279545244985,7.748692204363035e-05,0.00022498409716055148,0.0015077505644392666
42.80000000000034,0.01539712916648304,0.0008994684204626592,-9.79780961570978,-0.002717651358181704,-0.0004702924181212981,0.0002648825004386441
42.90000000000034,0.00887121638729431,0.004231009153278338,-9.810560531690529,-0.00046149764008076113,-0.0007997656981946477,0.0019172789981537987
43.00000000000034,0.011222257801376631,0.013077771471889748,-9.809893941759753,-0.000534469340741795,0.0005546941798955465,-9.111346939383765e-06
43.10000000000034,-0.00128077627084407,-0.00024856286369587667,-9.816329512669599,-0.0008714153945717722,-0.00024240456051635552,-0.0013696528722848813
43.200000000000344,0.005982497666025951,0.0083855075480801,-9.81769538984576,-0.001827429936489406,0.00039357952730514727,0.00025457023329664
43.300000000000345,0.00020507037263192668,-0.0133442809071426,-9.829177404614445,0.0017115593639849592,-0.00021640796052680087,0.0005211053596889746
43.40000000000035,-0.0007074978270633413,0.004135401052282568,-9.822782659766986,-0.000445709426733692,-0.0013553630887139846,-0.0010694560590094962
43.50000000000035,-0.00709019940363552,-0.018065494916138836,-9.814611993194122,-0.0007108888926347918,-0.001186214899347432,-0.00011298333872546139
43.60000000000035,-0.00011340683485682682,-0.008369735161386706,-9.789880285106436,0.0007182074136829244,0.0011216565739195171,-0.25022874208018325
43.70000000000035,0.008935994230605494,0.0076557513936632415,-9.820185070207998,-0.0006822099317533046,0.0029152223158608534,-0.00039745427197473006
43.80000000000035,0.00486861200314808,-0.0021460162008759757,-9.80168602818599,-0.0009945853121559563,-0.0010052923963461623,0.0011481041414474322
43.900000000000354,0.0019853242993776873,-0.02477620876439257,-9.809765856494097,-0.00018196770659554125,0.0007106682338791255,0.00033481775635640904
44.000000000000355,0.0034219671626588974,0.0008746449151496341,-9.80709531246841,-0.0011526235457290563,-0.0008148997212980254,-0.0008385466633633196
44.10000000000036,-0.013411595411169083,0.00788253888107948,-9.79922416071675,0.000613995411968149,-0.0006012319089477326,-0.0005233642136822722
44.20000000000036,-0.004398745903147322,0.011128982532234955,-9.804733721673406,0.0017389102567877967,-0.0009695776571266128,-0.00021187202356343714
44.30000000000036,-0.012606798948133977,-0.014172417810759343,-9.811552598388634,-0.00033570598872111133,-0.000512816985743646,-0.0015209596512081476
44.40000000000036,0.0019676979167529197,-0.0028386964199432303,-9.800851344908317,0.0005505025211231369,-0.00131174170271937,0.00040945612832009136
44.50000000000036,-0.005988682318276522,0.015325057064680434,-9.810295884058897,-0.0005035134321128524,-0.00040654116424555537,-0.0014871328153804439
44.600000000000364,0.012744567043516994,0.02119354859032629,-9.827297968892879,-0.00025179296345517694,-0.00011040466733842464,-0.0005805124953530104
44.700000000000365,0.01217536584639657,0.012474391050764071,-9.812453435763086,0.0020712821986455378,3.277080289936971e-05,-0.00022813952413263584
44.80000000000037,0.0027980361952050377,-0.0074603289900896305,-9.795468670487669,0.0006166362490192825,-0.000354945984261932,-0.0001717539691924737
44.90000000000037,-0.009077721403129143,0.0026250934748061183,-9.822936379539858,3.169944639415076e-06,-0.0005172054145801547,0.0005808207028122828
45.00000000000037,0.010425682875914631,0.007869380920960765,-9.811225705764521,-0.0007096237838522766,-0.00029966212018076537,-2.8678504434605505e-06
45.10000000000037,0.00487918719669315,-0.00568174730438143,-9.819672792597618,0.00017342667395663303,0.0013588022074943762,0.0018860897037566665
45.20000000000037,0.007931997819986738,-0.009902639006250883,-9.795914069292074,-0.0008456602041156787,-0.0007705719432063498,0.0004413759337429744
45.300000000000374,-0.013803252772326711,0.008016801858570082,-9.81053629220401,0.00039912286959972,-0.0008234291504865577,0.0008601927037461992
45.400000000000375,0.005131236157951996,-0.0036332839919248723,-9.800547187206119,-0.0026602860751466294,0.0003623115116648414,-9.377219905075756e-05
45.50000000000038,-0.00794998875693034,0.001772094327350436,-9.805001992259022,-0.0007369623833630638,-0.00011952650502194903,-2.7654318848237665e-05
45.60000000000038,0.0039289158385046085,0.012267746170514918,-9.814639499024468,0.0013169178733796864,-0.0013042219504056057,0.0003145428108319795
45.70000000000038,-0.017196087076014055,0.0007177701662830722,-9.802777457237717,0.002022969253473468,4.935669838375325e-05,-0.0007345490009238016
45.80000000000038,0.010264959693424797,0.0004115723682228777,-9.80901662139867,0.0009170178035099407,0.001092750141981459,-0.0017183631029410301
45.90000000000038,0.0005154998891241537,-0.00016395711712792127,-9.820695699830225,-0.001623899703077323,-6.684619108957386e-05,-0.00044996608848043716
46.000000000000384,-0.007246980923449929,-0.0013736830258665824,-9.813510241838012,1.7595425266469765e-05,0.0015767910216380589,-1.6362792901348783e-05
46.100000000000385,0.018803702713941155,0.012440986693492615,-9.800324170292233,-0.0007285043171366192,-0.00029343513784914555,-0.0009059583335072279
46.20000000000039,0.004158749126308981,-0.0006706117195840943,-9.805583018572973,0.0003025244765414159,0.00016784696765274312,-0.00034314248746298816
46.30000000000039,-0.00972991604042695,-0.004416852134069257,-9.802833837970711,-0.00016388247735637273,-6.002483424034266e-05,0.0008815775767004138
46.40000000000039,0.00487576329131408,-0.014748078406694363,-9.810804129500934,-0.0008712945951901971,-5.418315824336455e-05,0.00040403784708718213
46.50000000000039,0.0050941483865220415,0.01663784596276787,-9.815008168854177,-0.00029494356370599924,0.0005740279926141961,0.0009757528796664176
46.60000000000039,-0.010314241710934377,0.006867171468628693,-9.803345210450594,-0.00015035665456683686,-0.0002811018757044554,0.0007464147938859761
46.700000000000394,0.0042717005525288185,0.004007029926343052,-9.817317930836772,-0.001722303247782847,-9.400320606811419e-05,-0.00025733180866022675
46.800000000000395,0.004581482032135277,-0.007645129721671711,-9.803653029988565,0.0004096090798962272,-0.0007401292332115676,0.0009587961431065545
46.9000000000004,-0.0034291649109602167,-0.006964691720754596,-9.807491328730858,-1.4712760831985376e-05,-0.0009050533851783099,0.0006339065694385416
47.0000000000004,-9.154711877947864e-05,-0.007582132835490957,-9.827539658490188,0.00042641737895975567,9.902380238715182e-05,0.00013315024015510927
47.1000000000004,0.013768244758977779,-0.02490614832223641,-9.797307926846553,0.0013637989611753546,-0.0009800758966533455,0.001028442301283462
47.2000000000004,-0.00811960110052185,-0.010425058091183636,-9.811013955471333,0.0018276512775213284,0.0003616674171621996,6.361910695049016e-05
47.3000000000004,0.008856782882003063,-0.006224977003701693,-9.79502485434122,0.0015706205956302012,0.0004292103788753758,-0.000774499568223319
47.400000000000404,0.010720154753847567,0.002946920332775824,-9.803563357154635,0.0011365670086877252,0.00043643476808828436,-0.0008887695825327768
47.500000000000405,0.014903212544653002,0.002792728833679841,-9.806758425422741,0.0006150950323864864,0.00031173299002213193,0.0007617164062559099
47.600000000000406,0.0019745867587461848,-0.001775894621105676,-9.815501830842434,-0.000511325336637067,-0.000288167701231709,0.0010032072007620885
47.70000000000041,-0.0033689300743419033,-0.0011107709022961968,-9.811010621393585,0.0005338676461567843,0.0006489810333627514,0.0019882140329204054
47.80000000000041,-0.013930633331594,-0.0022794963621828386,-9.804269772701508,-0.0016851219710847859,0.0017413404722394698,-0.0001023399418067745
47.90000000000041,-0.007939979349424935,0.009707546485937224,-9.831980076082042,0.00021223976403409497,-0.000991498891475379,-1.1419757219178023e-06
48.00000000000041,0.003740578220635879,0.007925321169656073,-9.805886722275108,0.002086389201568732,6.19771596298306e-05,-0.00032815891421041527
48.10000000000041,0.012261183755300331,-0.0006530372651108185,-9.805817856192892,-0.0039372745929484665,0.0004532431593823444,-6.099893298706058e-05
48.200000000000415,-0.004349007930065365,-0.006563461639510355,-9.80096848628616,-0.002041668271032885,0.0031491642630593285,0.0011678897072644817
48.300000000000416,0.0036980249547513915,0.01900374138065587,-9.80725344472667,-0.0008949684760421813,0.0010270806701892,-0.0016222681950157657
48.40000000000042,0.00600065431845032,0.011981009652707954,-9.804650341372382,-0.0014512051846420956,0.00020511816799995096,-0.00010931844015960127
48.50000000000042,-0.007422110777829337,-0.023119787442421852,-9.821854991346104,-0.0005007338495333347,0.0011255534785944421,0.002766924258922497
48.60000000000042,0.008567895485492399,-0.007882589329114236,-9.81421037520205,0.0010821869973678317,0.0006137905827502083,0.00040468660253982085
48.70000000000042,0.0023809232553354434,0.011992920077190244,-9.78764055141986,9.602401223141729e-06,0.00015877977675500226,0.0005181889024171253
48.80000000000042,-0.00462157206701761,-0.02192628016071932,-9.805062693301979,-0.0007335790801359362,0.0013166031131060102,0.00019619751333898528
48.900000000000425,0.014974242235626711,-0.008575588837952522,-9.798688091896036,-0.00163163102797135,0.0009376658315988396,-0.000223476041765243
49.000000000000426,0.00937431622571106,-0.0035811362129496605,-9.803175350696788,0.0005026342333516453,0.00038315502696855026,0.0004564489765616921
49.10000000000043,0.01680435895492572,-0.005612984855728218,-9.795965878368792,-0.00035411838410381744,0.001206949398020405,0.002353490268336004
49.20000000000043,-0.007983218437998242,-0.021560328090043934,-9.808362742327693,-0.0006916895351198211,-0.0005264807044674747,-0.000315493276961085
49.30000000000043,-0.005337884972152811,0.014310037397396017,-9.79874608075689,0.001159102568442908,0.0023121350784842797,-0.00075700111252276
49.40000000000043,-0.024967814566751075,0.020235489125550826,-9.807495270821272,-5.568346589416148e-05,-0.001802914764115009,-0.0013379250719416822
49.50000000000043,0.006919029953839423,-0.001431425718356058,-9.831528703768562,-0.0009404804131972656,0.0010491316492739914,0.0012924421513217758
49.600000000000435,0.0021415714680240684,0.028339969772372412,-9.799732751459864,0.0018102651102140082,0.0013332936479899247,0.0008450090775279978
49.700000000000436,-0.013392017148152446,-0.016003595209168955,-9.817413496518505,0.00025835712948528514,1.0809661253421394e-06,0.0003884753474286013
49.80000000000044,-0.0001999789812703508,0.004777614044460121,-9.800124512053106,7.949692567590873e-06,-0.00028798501486449195,-0.002607522724653058
49.90000000000044,0.008722167729005428,-0.007733368759254712,-9.81909142650374,0.0008676873805849976,0.000918442159332738,0.0006937369542135142
50.00000000000044,0.00953007421326897,-0.010940608541768829,-9.812291975007872,-0.0005500093913075251,0.0017298458587664154,0.0008775747494561908
50.10000000000044,-0.0024394154238483175,0.008414554303793188,-9.806252954298438,-0.00011743702060351117,0.00046688119551192305,0.0008643565030301985
50.20000000000044,-0.0014215180266527363,-0.012504892701295836,-9.806454173911044,-0.00026405999941709414,-0.0011453511995901673,-0.0007544513910667272
50.300000000000445,-0.0024945817089277005,0.00027164839087782537,-9.804383116469033,-0.0002124772532207671,0.0004499070629879152,-0.0003596001109080461
50.400000000000446,0.005456598135228957,0.004030719828054548,-9.804308292371278,0.0014371459168191554,-0.0002828356133845074,-0.001579488395717525
50.50000000000045,-0.0007787261023389879,0.008094314246691454,-9.809750608960712,0.00031811521301609353,-0.0017226579397406612,-0.0008203711334955945
50.60000000000045,0.005387172191133197,0.007777853308518885,-9.817504266633918,0.0003670109323956058,-0.0007110065905557449,-0.001138672716521329
50.70000000000045,0.0007100870472410953,0.002170324002540959,-9.806036111205527,0.0007300450095267309,0.0016771148004404894,0.0009625219706550956
50.80000000000045,-0.0036084868426460833,0.009396888158007098,-9.824675175308215,0.0001006924281311483,0.0010534784441368313,0.0006929342927333014
50.90000000000045,0.008282408220613525,0.019100393763367408,-9.817407424013053,0.0007947771682135178,-9.333763342344513e-05,0.0011284391713350522
51.000000000000455,0.0011761946703880417,0.007820813778012024,-9.794532304918803,0.0006309154946034399,-0.00020981583985195656,-0.00035390438114957104
51.100000000000456,-0.006940362973301469,0.010381142357989852,-9.796876840420687,-0.00024431349188170953,-0.001809367909812941,-0.0006197413999565803
51.20000000000046,0.00433988230107763,-0.009467825187328601,-9.829584953295583,-0.0004444268235052327,-0.002040188876682598,0.00033921508383195795
51.30000000000046,-0.0040107448222971385,0.000602672029971595,-9.797033433437749,-0.0009079357640620495,-0.002147903107808777,-1.4589385516711892e-05
51.40000000000046,0.004689629434804016,-0.014295434234378703,-9.813684583629247,-0.0003471972132329903,2.781979150536265e-05,-0.0006017222213566893
51.50000000000046,0.026634629951046155,-0.002624466550503729,-9.80813475935112,-0.0004847517419688619,-0.0026431063074670437,0.001394677041146179
51.60000000000046,-0.03156799714551663,0.0135681852859784,-9.823214272662923,-0.0013589216387267556,-0.00010889934553391577,0.0022096764257707097
51.700000000000465,0.0031960281738771896,-0.0019125851191034624,-9.817677326066894,0.0006507231233344869,-0.00037009007730262605,0.0007275774097993109
51.800000000000466,-0.01963476911878389,0.005284419417404559,-9.806820083921417,-0.0013602238262437497,-0.0010326347492647752,-0.00013360250504815358
51.90000000000047,-0.0048650924365229225,0.0029002619087255,-9.82434678574107,-0.0008845642073878917,0.0021140059231319485,-0.000828602956584667
52.00000000000047,-0.004261071542542154,-0.0017707603010442233,-9.812784888638895,0.0012068994188356792,-0.0005721719599394268,0.0008687032539944499
52.10000000000047,-0.008554523543752005,0.007730784917563213,-9.81214077967052,-0.00017476188630450028,-8.861898098205116e-05,0.0005640215788271336
52.20000000000047,-0.01193462636449229,-0.009704506594628253,-9.789627740974767,0.0005064916856952604,-0.00036088162140032835,0.000655863011533744
52.30000000000047,-0.0006013732613642123,-0.02251405131070228,-9.80838670006397,-0.00012187447281888247,0.00034913454379648725,-0.0007609529951555908
52.400000000000475,-0.0022045130754377996,0.011421253369908303,-9.811508445435953,-0.0004289633060582386,0.0003650534540258291,-0.0003803920297174561
52.500000000000476,0.010678600932764142,-0.0017450534111294544,-9.806366290751825,-0.0007041268341144429,-0.0012477976842975838,0.0007330826944648625
52.60000000000048,0.0026199345758510205,0.006374381973303607,-9.802633185145709,-0.0014692612449267708,0.00011978541784311756,-0.001992043607899354
52.70000000000048,0.00519360398201295,-0.010856288674899002,-9.80532693459382,0.0007259545129938977,-0.0005394658651406257,-9.272100968032894e-06
52.80000000000048,0.012223161674156855,-0.016538976995745688,-9.803563665424146,0.00011837662945795458,0.0009481453545022076,-0.001638116095272841
52.90000000000048,3.53651314911285e-05,0.011041964270109379,-9.79640835702786,-0.0007692542295051093,-0.0002795361864863312,0.0018551876003141527
53.00000000000048,-0.014198132856176007,-0.000457479563526698,-9.808225750165748,0.00017492955402534783,-0.0009342462417020184,0.0009782456409599832
53.100000000000485,0.008885333066710396,0.018161388773651227,-9.817929678754833,-0.0004816940448830427,0.0010965935358701676,0.0018291041285664832
53.200000000000486,-9.974156763514281e-05,-0.015280262785057942,-9.812160807221995,0.0009647140758588989,0.0006781015313735573,0.0011267215909758843
53.30000000000049,0.019249263357439317,-0.004313184129440522,-9.819044386926866,-0.0012027078331039694,-0.00012278223101485264,0.0010328538635843072
53.40000000000049,0.01727181856018015,0.0021877109646986,-9.809852678259492,-0.00013288559801966042,0.0012263875435019735,-0.0007482308397539061
53.50000000000049,-0.0010492876080106254,-0.0007739154245782204,-9.810271607250135,0.0018082177858996728,-0.0008919718352147691,0.002469048659629734
53.60000000000049,-0.006553037364580186,-0.008204885928470206,-9.816608698660012,0.0006487288310421995,-1.4081326327965141e-05,0.0011349972074101403
53.70000000000049,-0.0082366503070868,-0.01673216563922596,-9.813709343351462,0.0002797737800889335,-0.0014697545114408196,-9.273574128043763e-05
53.800000000000495,0.005355813751932504,-0.008066576774966108,-9.818239805764597,-0.0010951747594524913,-0.00014345317188879599,0.000470102952555699
53.900000000000496,0.027475556506857603,0.011652122447798115,-9.822617060544388,-0.0015367974643971205,-0.00011027937733269622,0.0015857641035192018
54.0000000000005,0.006571375941923049,-0.005273225609356268,-9.799983600611798,0.001377351948645175,0.0014617404182738218,-0.0010526376673054153
54.1000000000005,0.0043741955628833155,-0.012811760644751804,-9.818054628029973,-0.0012786036390549356,-0.0002619525682260974,-0.0014222335863669502
54.2000000000005,0.007749247005642236,-0.00012323981581817474,-9.818644620422447,0.000485437953782753,0.001530746337564582,0.0003591622945838138
54.3000000000005,-0.005836602384782551,-0.0028385439780768125,-9.81104119662217,-0.0007015343784541574,-0.0017117290013788436,-0.00036472108961001844
54.4000000000005,0.012427208700304148,-0.008272402101543454,-9.829303354716712,-8.878188587790463e-05,0.0011028071881439183,-0.0017086512328440314
54.500000000000504,0.001900369620517662,0.004114456706630845,-9.804631436289972,0.0005570952255785193,0.0006081381838275554,-0.0015701632655284571
54.600000000000506,0.006160586071597323,0.013775135115211978,-9.812216539365064,0.00037141974958612153,-0.0010144160269766585,0.0013167574662130354
54.70000000000051,-0.006183808029464856,0.016494837224499646,-9.81379942506081,0.0006777653694968908,-0.0005334184261492718,0.001891530593019934
54.80000000000051,-0.019721345401044175,0.0036931847753595677,-9.830794469459232,-0.001204776325979203,0.0018919934715405312,0.0009217990373461299
54.90000000000051,-0.02010540974246311,-6.030499821496372e-05,-9.816196689206823,0.0005697964366307742,0.0018504072925141744,0.0006676720516983998
55.00000000000051,0.004346525683709604,0.005080412009924169,-9.820925099398822,0.0007011348546655311,0.0009210958788171844,-0.0005985780420793339
55.10000000000051,-0.006424836977929857,0.014499804568915609,-9.807908768298741,-0.0011373179661576496,-0.000424085081853183,-0.00044373997560998973
55.200000000000514,-0.0006451367271947333,-0.0007271365784487631,-9.812492763894854,0.0016739363208118129,0.0008322807776421754,0.0014967684575104812
55.300000000000516,-0.01694652476973414,0.0011114014849078562,-9.798252232267417,0.0007254120145624686,-0.0006793478442324991,-0.000742185322081969
55.40000000000052,0.00960018821554083,-0.0021251425432007374,-9.803516982510438,0.0001566145230611394,-0.00011763897623177069,0.0001342584369660611
55.50000000000052,-0.008296021411243786,0.0170118300570998,-9.804518201232638,0.0013993376460635458,-0.000529196916411926,-0.0005267568412589295
55.60000000000052,-0.0031924380263444797,-0.008615909953626329,-9.803218467257324,0.0007125067068177863,-0.0005131339606667499,-0.00030588527761569507
55.70000000000052,0.003766022374695034,-0.00752589402297283,-9.814093281656783,0.001560487524667729,-0.0007465763080467568,-0.0005030431072245644
55.80000000000052,0.025047301331045296,-0.021263719956950568,-9.821843745762783,0.0017973023787316229,-0.0004095479481588542,0.0005136092892704376
55.900000000000524,0.021196571417648,-0.007170369042082716,-9.815915064877379,0.0004107863995127024,-7.58229727864078e-05,-0.0005111479669308381
56.000000000000526,-0.0013332373199479806,-0.013281277104319434,-9.805342762579484,0.0008344942739699071,-0.00016145128235233252,-0.000210033102328852
56.10000000000053,0.0054878334371093115,-0.005382366333556717,-9.813081306344781,-6.833369112227932e-05,0.001472011586594601,-3.544064739432881e-05
56.20000000000053,-0.0011372768301674816,-0.0016414777201844994,-9.813837945049517,-0.0009649187430136589,-0.0009191133044450214,0.0008741311176136558
56.30000000000053,-0.005691050138505575,0.0009235143758846519,-9.81476269378451,-0.0013279140236060164,-0.00046475207795866114,0.001410719774705587
56.40000000000053,-0.004145817005865085,-0.006763733437904639,-9.814278774511143,-0.00033463571621299517,0.00022850942636975572,-0.0003978687978059883
56.50000000000053,-0.0009759741730442287,-0.004909168921566732,-9.80642499014021,0.0003112588812186786,0.00021168425743480483,0.000646907889038915
56.600000000000534,-0.0009924944713686785,0.012129467538699892,-9.805338076177707,0.0014878354031338807,-7.971139539727902e-05,0.00028590615870326705
56.700000000000536,-0.0068218101740801845,0.00015627414580563683,-9.801819721825641,-0.00036549729770880623,0.001492175758121735,3.945364415770713e-05
56.80000000000054,0.015831764531487668,-0.01048803143799867,-9.812768620126539,-0.0004963600898892569,0.0010106316239948958,0.0006558838125130799
56.90000000000054,-0.0007641423501352233,-0.004557978544772833,-9.810268372966071,0.0007245862901370012,0.0008357407678535691,-4.583632388172185e-05
57.00000000000054,-0.00447077961999441,0.0010206732619572534,-9.808707284071255,0.00025253896516934973,-0.00045349476024282315,0.0017542533082189097
57.10000000000054,-0.006287931135223388,0.015124710442741983,-9.79606336370756,0.0009471132433017249,0.001874063479875216,0.0005696183637647766
57.20000000000054,-0.003166859919961749,-0.005230716211077663,-9.816710768037899,0.0008373452603514406,-0.0014806025629133077,-0.0014085741592029671
57.300000000000544,0.015324765469753388,0.010128812955963146,-9.805856691094567,0.0009233496388911721,0.0007742930512772597,-0.00017308799733063249
57.400000000000546,-0.014686370158236445,0.012830899284853375,-9.805538044340842,-0.0013762169463620204,0.00014229627265673728,-0.0004549398057173157
57.50000000000055,-0.0011536063207555655,-0.0032797072187167814,-9.80448791390071,-0.00020841504417478705,-0.00115495361435408,0.0006867913735695045
57.60000000000055,0.004858006126044834,-0.014257799842843486,-9.805908700645011,0.0008876263408465552,-0.00015249854600906664,0.00020146085360341943
57.70000000000055,-0.0076432983895527405,-0.017500719822018677,-9.804781693059162,-8.788591333173883e-05,0.0004296026504108136,-0.00022099681885453048
57.80000000000055,-0.0026035643862238555,0.0016229517153971734,-9.810633211625854,0.0008662791524984179,-0.000423889361643458,-0.001430615036649927
57.90000000000055,0.0014411300568369675,-0.013032032817404988,-9.835339746109446,-0.0010967798415387185,-0.000438588503669468,-0.0007821622438388708
58.000000000000554,-0.015366690325917089,-0.0022464534988574144,-9.797835341425294,0.0008294176477030219,8.235958145634597e-06,0.0009349026824690378
58.100000000000556,-0.004403933367190304,-0.008819968975924778,-9.803215401071618,-0.0010835779651805898,0.00033401139335502677,-1.1888718587264002e-05
58.20000000000056,-0.003627473602318144,-0.004580597086552385,-9.798627810824287,-0.0015893642454708338,0.00026899740633027144,-0.000274786129965337
58.30000000000056,-0.007414211692725879,0.0003894361629338873,-9.806841966876233,-5.994446897820392e-05,0.00024503778951177847,0.0014286237432920073
58.40000000000056,-0.006008967863441754,0.004179496888976785,-9.827385975847143,0.0004569541330742594,-0.0018669404188323745,0.0006451452278321781
58.50000000000056,-0.00475174779625586,0.00164130608050496,-9.824554844273106,2.402311890492607e-05,0.0008240130209951827,0.0006336310610551008
58.60000000000056,-0.00017250079253558847,-6.47259832074705e-05,-9.798545624001648,0.0007359903197100694,-0.000624762023594005,-0.0005660462427935452
58.700000000000564,-0.006798662566185744,-0.00035649157887534833,-9.821606685651243,-0.0021583718205742952,-0.00021830723570232368,0.0002666657606522897
58.800000000000566,0.0018642526296284182,0.010849902561320767,-9.822925036060036,-0.000513155963312859,-0.001442425950800458,0.00025961362885073246
58.90000000000057,-0.0010458292495592605,-0.004808240810547686,-9.809585580026988,-0.0007068875919643376,-0.001022028854779279,0.001594291954421493
59.00000000000057,0.00810345429810616,-0.001841635837528684,-9.825414429532776,-0.0002142941049409418,0.0005742511706942518,0.00018366847827247425
59.10000000000057,0.010091431287075249,0.012268782723372451,-9.810845482872693,-0.00046808414985683263,-0.0004943932194075188,-0.00039968978892980354
59.20000000000057,0.009045496358953858,-0.004241484486330669,-9.826807785268672,0.00046496627239639107,-9.893215203023165e-05,-0.0004534044312815312
59.30000000000057,-0.019635077905685555,0.011700525102330113,-9.80303649419133,-0.001136882151183256,0.00015177359326020887,-0.001069947027992733
59.400000000000574,-0.013606030294382685,-0.02098704465475091,-9.802206657842326,0.0008799162400053264,-0.000309839969808493,-4.605568584806938e-05
59.500000000000576,0.017549348178922355,-0.007553956427671997,-9.821847528511102,0.0001275441611853692,0.0005494994004588707,-0.00028309973948422573
59.60000000000058,-0.014260853434123049,-0.007672123271650815,-9.803149942730963,0.0007147527812107976,-0.0016706897366880647,-0.0012088211536039404
59.70000000000058,-0.009851505838387216,-0.0002544681786311449,-9.787931817062612,-0.0002858216528469563,6.210504287753598e-05,-0.0007833598585243261
59.80000000000058,0.025853149206365784,-0.006019225571921713,-9.815117483296685,0.00015621836365290644,-0.0013243643331087183,0.0008225500003977364
59.90000000000058,-8.329966251811581e-05,-0.008427203445479392,-9.815958081935728,-0.0018940358337058852,-0.0005555548437408795,-0.0022608381030911695
60.00000000000058,-0.004504637213600171,-0.004955738897494539,-9.815889803802703,-0.0005828514199280938,-0.0008419790361351315,0.0012478177456979045
60.100000000000584,0.014392314761364178,-0.0016956035102028589,-9.798563272658757,-0.0003064991788044607,-0.000302432607603749,-0.0008149937255827493
60.200000000000585,0.006974673309406299,0.006180635731505782,-9.822904718897762,0.000159978100377155,-0.0005170244092072149,-0.0008881351883009452
60.30000000000059,-0.00025697109886180117,-0.019188394155036887,-9.814339397052006,0.0018895160123114296,0.0004356733280813829,-0.0011217903716726168
60.40000000000059,0.005533708418242482,0.0008861554772751325,-9.813208111465622,-0.0005857673334261942,6.886661821822572e-07,-0.00057861086604304
60.50000000000059,-0.0017319805423994252,0.0073950196659481465,-9.801842856932735,-0.0012964634834344271,-0.00046838993248985914,0.0016206967230230657
60.60000000000059,0.017965441777894896,0.0036976770660302233,-9.79390425914582,0.0012081862491481127,-0.0001319885934504899,-0.001982507962373791
60.70000000000059,-0.0006117099170872928,-0.012821867291105607,-9.80863625294668,0.00174619640930471,0.00024870488232202565,-0.0007713791067591988
60.800000000000594,-0.01169333857341222,-0.019629530857285,-9.829060238100853,0.0016267665840627948,0.0008559578500221732,-0.00011725116701016583
60.900000000000595,-0.0015296789225128504,-0.0005196983646632366,-9.810117310299214,0.0013921167031633644,0.00039012349753698696,-0.001968651271653207
61.0000000000006,0.010606643650214772,-0.01929815721684886,-9.814061936188127,-0.0013860618031911651,4.035879611773523e-05,-0.0012433516877125611
61.1000000000006,-0.013777889180178122,-0.01046530842979556,-9.801861881191858,-0.00018572514693691386,0.000667189291574244,0.001374087030293997
61.2000000000006,0.0023834391742237828,0.005701027983438593,-9.819694861609383,-8.456103316221873e-05,-0.0011488442532096646,0.0005676079010862807
61.3000000000006,0.009062202564187338,0.009658353146658279,-9.810282317359391,0.0008954545072989914,-0.00014533170030523888,-0.0005476887290829204
61.4000000000006,0.005020551631398291,0.0072595864520350805,-9.787963380553316,0.0007291311102093274,-0.001100936537647294,-0.0009643262836807405
61.500000000000604,-0.013017079198759678,0.0007737357420260266,-9.820996848263471,0.0013623282412713797,-0.0002915076847194388,0.0006555426975964663
61.600000000000605,0.0015169401199408277,0.0034382056401472062,-9.820365093602621,-3.3488590853363566e-05,-0.000427367800909262,-8.749639522321505e-05
61.70000000000061,0.0012468888980519757,0.006814734627946344,-9.814655572292084,0.0008236051414158117,0.0003292336957671092,0.0016525544451035184
61.80000000000061,-0.03312595747291519,-0.00642679611190922,-9.79741423378795,-0.0025212472442065854,0.0014846360078381304,9.599578646237659e-05
61.90000000000061,-0.02042229648497124,0.007255907657684028,-9.820525735710877,-0.0009128100132501272,0.0014646461330920474,-0.0003731090784849765
62.00000000000061,-0.009593544408447006,0.020079611204929293,-9.800709250357075,-0.00033456887481216974,-0.0007894822997939343,-0.0001901706159402222
62.10000000000061,0.015772921846886598,-0.009825063042945064,-9.822738781924254,0.0012745500316974493,-0.00028212216187025775,0.00011424593088775502
62.200000000000614,0.005248785230643929,-0.0039007392404570946,-9.834240814864135,-0.0002121688379958563,0.0012410461470317984,0.002186237570493379
62.300000000000615,-0.0011786940799982206,-0.0002867013526906138,-9.796345343251447,0.0005957019719428258,0.00029541651604397194,-0.0019653418857200253
62.40000000000062,-0.004163503721561878,0.0021475272736774928,-9.82514042357941,-0.00036604812191678526,0.0017085146137502966,-0.00024336001063299774
62.50000000000062,-0.014343606843082715,-0.018871014115344524,-9.810112875619378,-0.0005777233924075198,-0.0008685169077615835,0.00024129970555902442
62.60000000000062,0.0028480515520512145,0.0017458026754262473,-9.806495098196482,-0.0012289949076875742,-0.0006405019031805434,-0.00031237059188813537
62.70000000000062,-0.0005382316522092632,0.009895734487758668,-9.817281924330127,-0.0007775706003748463,0.0014873841930289455,0.0001722405542002679
62.80000000000062,-0.013980410419753422,-0.00310971939724135,-9.822361892678094,-0.0011369640494309824,-0.0013342624630143728,-0.0007821855585768998
62.900000000000624,0.020597169547752512,0.010104806874341031,-9.796183293855073,0.001087611029579423,-0.00013488092512250468,0.00041722904182529336
63.000000000000625,0.0010281990531468884,-0.010680743252156401,-9.821624316262975,0.0009003501977073616,-0.0012183943022256248,0.00021471798862425002
63.10000000000063,0.006521022919661779,0.0075273647967773385,-9.806307351037496,-0.0012007273512002245,0.0005403972642139142,-0.00012447338703508746
63.20000000000063,-0.009775512280816644,-0.019887538090141748,-9.8054879230093,-0.0015524436748283856,-0.0017073283025634861,0.0017617079808860813
63.30000000000063,-0.012013717233177701,-0.004199779329481971,-9.80928206172941,7.021900726212328e-05,-0.0010193077831084226,-0.0006945339127166382
63.40000000000063,0.008056534796188886,-0.0027878444148672446,-9.810231469196923,-0.002162602633982621,-0.0005736970133315597,0.0008712040382445871
63.50000000000063,-0.007292026948110359,-0.009515301368914772,-9.806250965247985,0.0005986581314532009,0.00033374024806043635,-0.0005525737960557609
63.600000000000634,0.007496254220416524,0.016289692978603217,-9.79830034609002,-0.001563332991024519,0.002929494968341467,-0.0013118102961637843
63.700000000000635,-0.012259156541526515,0.0030439469920603567,-9.810943601994051,0.00036135034974929894,0.0013116421091286005,0.0009443047765657919
63.80000000000064,-0.008934781182111481,0.0007206729101725728,-9.799887917982575,0.0010529119122514134,0.0011244538911048061,0.0008312425458411698
63.90000000000064,0.007079021166319963,-0.005135155148527494,-9.823181777326084,0.0004223946077568961,-0.0004540284443389545,0.0012583067918933402
64.00000000000064,-0.008725598870302892,-0.0038118887916155533,-9.814280989314344,0.0009669741307656176,0.0007514450445015764,3.66134638086791e-05
64.10000000000063,0.002920184300352439,0.016147629263523807,-9.82762662840461,0.0007480366611945588,0.0010799757318110054,0.0012280672839340486
64.20000000000063,0.008025006830940106,-0.007739136870061023,-9.81539040170646,0.0006621787597881278,-0.0005892980379829562,-0.0001845487206707942
64.30000000000062,-0.015052493657311396,-0.011924454879421557,-9.806533416373005,-0.00042600192461859676,-0.0007587492143269661,-0.0001740130509440786
64.40000000000062,0.003013909202296766,-0.0026124891916591364,-9.808274215483431,8.848009776143743e-05,-0.0002515023180785273,2.4425062393926872e-06
64.50000000000061,-0.008872669971413588,-0.00501594523003449,-9.828370719108708,-0.0011664293093777659,-0.0011870512391330497,-0.0003850897773878497
64.6000000000006,0.011303230476566384,-9.032730430251398e-05,-9.808495340494169,-0.0009424439420152598,0.0002871115650217511,0.0017095702944982308
64.7000000000006,-0.0008724108006679326,-0.008247339752431493,-9.821658747136786,0.00026290348151063604,-0.0009413078310897161,0.0007271817881792155
64.8000000000006,-0.010123170274546163,-0.016561173933233343,-9.80520047291551,-0.0012937030696500184,0.0006061345880109306,0.0010512223288917813
64.90000000000059,-0.005928129331102888,0.0020830475859708085,-9.796078419225957,-0.00046483012902985685,0.0015984539368254864,-0.0003147627839433799
65.00000000000058,-0.009377094081391769,0.0009754418185088443,-9.80774873037016,0.0011343640459665321,0.000886414597207252,0.0003833185587570523
65.10000000000058,0.006561837645872346,0.001808791419483338,-9.80207894190018,-0.0005187069821388236,-0.0010812654184624332,0.00022235204186333107
65.20000000000057,0.026891567255954367,0.008076802664218423,-9.817000159404772,0.001393911062628084,-0.0018644876781071299,-0.00023810277107189263
65.30000000000057,0.003974223400537512,-0.006732370756294071,-9.815941866236095,-0.00016999899921783156,-0.0005425016793958625,-0.0007703522194213104
65.40000000000056,-0.010842211549608542,-0.015600570063824891,-9.819664115673202,-0.00010155080937546203,0.0010063712137696832,-0.0006496006975462487
65.50000000000055,-0.012116934213498078,0.01605446695916347,-9.82143257396907,9.459228216510642e-05,-0.000936378880704351,-0.0007051273337352171
65.60000000000055,0.003865650485993175,0.0046115742410503735,-9.797289881798742,0.0006687615544105718,0.00015403212556710656,0.0006383681510001473
65.70000000000054,-0.010302424179287879,0.012105196199516659,-9.804673341283138,0.0004897921650738416,0.0005985077639597968,-0.0014659155573873044
65.80000000000054,-0.011339312639885144,0.0013228357906416395,-9.808550631823017,0.000575038765586739,0.00010657727663750633,-0.00017071611067381577
65.90000000000053,0.012577850231333834,0.0034957031901753496,-9.802533398349038,0.0011952073026365187,0.0012639606373823075,0.0003314858451910618
66.00000000000053,0.007257781619380271,0.0026600396285299693,-9.799274766807264,0.002280624197831893,-0.0010448944450547253,-0.0007389377134603337
66.10000000000052,0.015836842945513664,0.001861301776552701,-9.8142990308073,-0.0006941258928884681,0.0009374295282696908,0.0005741585603498488
66.20000000000051,0.020077470281423173,-0.0009119596057864223,-9.800984213552733,0.001653889827394813,-0.00143391633196515,-0.0010395937295904934
66.30000000000051,0.002714232325469167,-0.005725662288212182,-9.814214828526616,-0.0006609220588458988,-0.00014792234526379884,-0.0008902275430365471
66.4000000000005,-0.012797437347900531,0.003851773614615998,-9.808751761472337,0.0009788705992907168,0.0005219489986938624,0.00043775083048505013
66.5000000000005,0.007528909524248748,-0.009148574456341003,-9.814984532445996,0.0002748636075835232,0.0009348768566453562,0.0006603526794259835
66.60000000000049,-0.0021197769676261436,-0.0018628819738626858,-9.807501379403353,-0.0011563843120293332,0.0008485614371510791,0.0007860894168426835
66.70000000000049,0.009290418140261984,0.009934344080008723,-9.80002112980655,-0.0018840571412882437,0.00022527497826562074,-0.001416065476457836
66.80000000000048,-0.009526972023845158,-0.0013280652701173849,-9.79816952397089,0.00033115392145357213,0.0002314349154134412,0.001799421266802751
66.90000000000047,0.0024102248365210307,-0.009497222985691244,-9.823938765205531,-0.0008729305783206557,0.00011189786283754871,-0.0015268488750210176
67.00000000000047,0.004382410547587804,0.003088941130328234,-9.817200167574988,0.00010413001221469308,0.0005164843788888039,-0.0006181400384279596
67.10000000000046,0.007328036915543703,-0.007167161538537667,-9.804124828439702,0.0014576387799469404,0.0003220501635188686,-0.0012596697157808156
67.20000000000046,0.0008871208474442308,0.0008105723209561866,-9.818612118000997,-0.0012594934296509144,-0.000381626452225253,0.000882154698636306
67.30000000000045,0.00817885987366341,0.011998885103892343,-9.81044850314256,0.00196461530315232,-0.0008461520942675396,0.0004546133470945647
67.40000000000045,-0.0024160270313967926,0.014914040177582511,-9.809677478378656,-0.0010320844142539015,0.0002418431758399124,-0.0011081979787411376
67.50000000000044,-0.008722478491979083,0.009263624151579788,-9.810203118350476,0.0008555916354174716,-0.0008736486871543374,0.0013105859013777393
67.60000000000043,-0.0017532149721700787,-0.019573682811842893,-9.818957104086174,-0.001397455240066104,-0.0014638153685209872,0.0005242950345517611
67.70000000000043,0.00365658251284937,0.005908105540703554,-9.817372845612281,0.000531708715392842,-0.0014680741632277373,-0.00046908905038592775
67.80000000000042,-0.0015875902842433886,-0.005703159494047967,-9.808995399201985,-2.274047566330555e-05,0.00047111739739782505,0.0003173206405550457
67.90000000000042,0.009552814687328702,-0.0048024255240287144,-9.803484841496916,0.0002774780402123296,0.00024308932936671583,0.00014751932243250985
68.00000000000041,-0.02156479183507117,0.019174833858302435,-9.81915316484484,-0.0007964472622083915,-0.0003222985721877867,-0.0012962019194638131
68.1000000000004,0.01745884048196151,-0.006197006182438103,-9.816838153166287,-0.0008296780782032334,0.00043703919592522804,0.0014096419903265411
68.2000000000004,0.0027275027382246287,-0.0077419000353817005,-9.79677219300755,0.000283564312656144,-0.0007224181907629346,-5.8215151199712104e-05
68.3000000000004,0.0013133848778812977,0.00237075951205877,-9.809983830989069,2.3916769870285472e-05,0.0018628067553674579,0.002847510134833241
68.40000000000039,0.0017301458161797997,-0.009172124040556659,-9.820502305789491,0.000813130770785458,-0.0016240637597082928,-0.00016800360748286128
68.50000000000038,0.003949443921575692,0.0018167234642635622,-9.814046574259757,0.0018377706423295325,0.0007962541592272341,-0.000457040670570543
68.60000000000038,0.007832585853049282,-0.001839487726311758,-9.815162588650168,-0.0004075824955337323,0.0011825206659026775,-0.0005452487897711872
68.70000000000037,-0.0007130526118485104,0.010200448138176717,-9.80695889651045,0.0002404079743196821,-0.0006653093837899266,0.002344655182177002
68.80000000000037,0.008182958964744049,-0.0236854998087544,-9.796958158201969,-0.0012860690114616443,-0.001372035502009093,-0.0006841322291428479
68.90000000000036,0.012578569011127517,-0.002724187495752431,-9.80789378704226,-0.0016700076315990524,0.001075498317321793,-0.00025343301620732363
69.00000000000036,-0.012892896077117272,0.003248195579579196,-9.805101279261377,8.502289638377545e-05,0.0012914227871532028,0.0005974331519752146
69.10000000000035,0.015022201805642375,-0.0005478745574144271,-9.808904434360269,0.0008641786809602411,0.0011586490941047456,-0.00031929954819560734
69.20000000000034,0.018858379487306037,0.0011535432068166137,-9.809951626412456,0.00044184052777626067,-0.0008557143294873891,-0.001632199481442843
69.30000000000034,0.020557647091169386,0.010642590504533467,-9.819239512426059,0.00013709702434434398,0.0006235260960792973,-0.0004741572820802086
69.40000000000033,0.01433122938367365,-0.004945126830914104,-9.800076018372662,-0.0006304297019654619,0.0005071727391778747,0.0015636647219084573
69.50000000000033,0.004744282405673355,-0.004880816866059326,-9.80778333439989,0.0007248558958840421,-0.0004280528759415113,-0.0003811206024423753
69.60000000000032,0.017620082971004748,0.01396958419813615,-9.816632619985501,-0.0013183120225140688,-0.0012834217646123126,-0.0011009805674593617
69.70000000000032,-0.00283956443630757,-0.0007571750599015233,-9.82383757043304,0.0001545982277221368,-0.0029032093721075426,0.0001536351667677173
69.80000000000031,0.016078242214039976,-0.012151094879578562,-9.83879678541521,0.00016654919725316253,0.0007006742734355292,-0.0003946118271682662
69.9000000000003,0.0022873349870284176,0.012910711712931707,-9.793106316490823,0.0005980157780075127,-0.0012360006120896183,0.00018322133251885264
70.0000000000003,-0.01000287212019105,-0.0001555793757899074,-9.812413931241098,-0.0005709546679504626,0.0015311575378849764,-0.0002138638920503464
70.10000000000029,-0.0148095418636695,0.003795443363801894,-9.803138918949521,5.104916037169898e-05,-0.0007748612136337377,-0.00041859220762674974
70.20000000000029,-0.005888145577373266,-0.005046771576403359,-9.817017837728374,-0.00022104030366688782,-0.0013558016685259913,0.000260580122418154
70.30000000000028,-0.007823601120622704,0.008770935663572036,-9.80618748797155,0.001505772102945165,-0.001364283479731616,0.0014250115163054013
70.40000000000028,-0.0011657000448495672,0.006189048035944547,-9.801102471407193,0.0009611855006172459,6.158995252081894e-05,0.00046838148182252976
70.50000000000027,-0.0009168582036331764,0.007276391525817649,-9.818917747551472,0.0004045504172336111,0.0015393969264463358,0.0020202595598188384
70.60000000000026,0.010680905035549398,0.014613558368934715,-9.80476392526653,0.0010538128515306048,0.0019450394660563107,-4.0446692635894764e-05
70.70000000000026,-0.01587744180987702,-0.0017031186445017096,-9.80814019527268,-0.0008239288909365861,-0.0011978567133328494,-0.00047917605487626715
70.80000000000025,-0.012300081741902582,0.00912662746689613,-9.792953230165175,0.0006753801178114956,-0.00139458956322296,0.00022088215277113105
70.90000000000025,-0.008582831171666704,0.0027973892691053963,-9.818231406039734,0.0009828490986805896,0.0007023241629745978,-0.00030679200907063613
71.00000000000024,0.005044671510107833,0.0006319882454439072,-9.792725710367506,-0.0019015715724136583,0.0004128928873262598,0.0012568147638836995
71.10000000000024,-0.0036679051922284423,-0.00499090010583284,-9.80822699237773,-0.0009197350141240535,-0.0005365844685294664,-0.0010103799225335353
71.20000000000023,-0.0017752805710493395,-0.020919756242207016,-9.816027744209364,0.0005584574914342791,-0.00037854145486581,-0.0003980884230737564
71.30000000000022,0.008989659601306448,0.015777945897788647,-9.817372288382828,0.0012049453710030326,-0.0017504903518717316,-0.0008320163937357531
71.40000000000022,0.005357953607937388,0.002576751223060831,-9.808808904706991,0.0008648567805931103,-0.0002027198612055006,0.0007763137717798781
71.50000000000021,-0.004889803009625133,-0.006274887546504008,-9.828749036459806,0.0006763593436242353,-0.0008678178838550978,0.0010213406639856966
71.60000000000021,0.010096856843892856,-0.002221901505375948,-9.809127485128538,0.0001978165486753961,-0.00020504275975885146,-0.0014447887434490768
71.7000000000002,0.014457445642459437,-0.005678202693150476,-9.804705302175922,0.0002913589964406361,0.00028966025563244063,0.00023274611500216272
71.8000000000002,0.009120829566517927,-0.008707301650691581,-9.800079277344425,0.00016586233170522272,3.9228577532490254e-05,-0.000401285670497733
71.90000000000019,-0.0004540601684640764,0.0057915894178097675,-9.821719504982786,-0.001720578970255799,-0.0002747716554660151,0.0007159032457383319
72.00000000000018,-0.0029904405503468397,0.013711833486438207,-9.797039746257983,0.0014025115636713923,0.0014522904026736155,0.0002773614471274716
72.10000000000018,0.005669459043936601,-0.006820953749120031,-9.836855056829188,0.0004053915577452256,-0.0007717368376527842,-0.00018735936722603992
72.20000000000017,-0.024854084509595822,0.008975385177474404,-9.812017491915926,-0.000590749068837105,-0.0011549224834996234,-0.000798794825753124
72.30000000000017,-0.008468996600455449,-0.009710385556289516,-9.824130338793152,-0.00020980616334738376,-0.00033813898710054397,0.000873191634661195
72.40000000000016,-0.017515028677853095,-0.0044581848253957635,-9.818913511719831,0.0003409139584900146,-5.238267915048745e-05,0.0008628352037430464
72.50000000000016,0.018381805730786318,1.0665667361786976e-05,-9.804700043629667,-0.0007496284236416309,-0.0001268302048957909,3.866947731478859e-05
72.60000000000015,0.02138860903142798,-0.011395604786303094,-9.811340551059159,1.9451051604810385e-05,-0.0007543299213267128,0.0003662564429991503
72.70000000000014,0.00014173666831190947,0.001195300320172183,-9.817221757229115,0.0007345887860494618,-0.000930452264293774,-0.00035833339055369183
72.80000000000014,0.008473565193784999,0.013978862086969388,-9.817502306191674,0.0006228451182059806,-8.533425247548856e-05,0.0010578003809654825
72.90000000000013,0.0011146119522911471,0.016970534389174455,-9.794673882166549,-0.0009732410418287788,-0.0003267867506012752,-0.0007366878642052207
73.00000000000013,-0.0008081519160931815,-0.018172589070708716,-9.826736840936256,0.0010198018711502475,0.0003407399628679131,0.0007672971106747799
73.10000000000012,-0.009046809345124541,-0.010510973160710112,-9.81193565058522,0.0013828401831413723,7.540763834512061e-05,0.00019680472770772312
73.20000000000012,0.011777762992089094,0.003796747904138769,-9.808180311832558,0.00042739556619511804,-0.00019068628100371988,0.0015872012486728624
73.30000000000011,-0.001043609703871633,-0.007205218010630187,-9.8031839534016,0.0009466737305151884,-0.0004717537179797124,0.0007377974338253259
73.4000000000001,0.010765371658911092,-0.03351724947452281,-9.827246752954945,0.0004005066361822987,-0.0009305577360402544,0.0017002468315321713
73.5000000000001,0.0032406145816158143,-0.0010160529905974033,-9.809382348664007,-0.0003798769684965894,-0.0006418871849583245,0.00013564834961571923
73.6000000000001,0.010029205933591537,-0.01547071610341366,-9.807592149056116,-0.00044961354472562894,8.608686625097926e-05,-0.0007379743870537643
73.70000000000009,0.0014384133049313852,-0.010721704673308801,-9.810202904330035,-0.00026030281536176223,-0.0016652573855544825,0.00043208509576528776
73.80000000000008,-0.028118572873806445,-0.0037568553221520545,-9.824905871717883,0.00025700841736042945,-0.0003360495340839838,0.0008307772201772347
73.90000000000008,-0.002021067252961349,-0.0021296958478824617,-9.798794002539035,-0.0004648200456946356,-2.9691250010778516e-05,0.0014400757684700223
74.00000000000007,0.006619056039943801,0.019828850533782253,-9.805409377883853,-0.0005296427791742504,0.0010740502538587905,0.0009361544917110444
74.10000000000007,-0.0027312092094728367,0.005401051979284671,-9.810824199916027,0.0004980737543016475,3.261112172290219e-05,-0.0001160922922111646
74.20000000000006,0.016887749782267553,0.004562234338562475,-9.82330524343485,0.00020841535497305235,-0.0002991630229288727,0.00032683513651261646
74.30000000000005,0.0023992777418384028,0.0036624954799450277,-9.826984047064844,-0.0015679096721824151,0.0014005908322616226,-1.2822698707065187e-05
74.40000000000005,0.013381007283894868,0.005276058225942508,-9.815330983762273,-0.001688524452858312,0.0005119477692799878,0.0005311169936985205
74.50000000000004,0.017511801463731238,-0.002025176101448277,-9.809238683213735,-0.0018080683499650345,-0.0006068676862026447,0.0002597631559019166
74.60000000000004,-0.0035079642293973845,-0.008739551971383827,-9.79582246855944,0.0016026803366905415,-0.0010681489983692147,0.00011274303111081961
74.70000000000003,-0.004284938954098787,0.01484818939800811,-9.807625456771248,0.000597281958695183,-0.0009350349308272666,0.0013413172799223026
74.80000000000003,-0.0029895241691926208,0.01862922989671676,-9.799075443951034,-0.0006509592896238032,0.0005269190269992935,0.00025724070632105107
74.90000000000002,-0.002212992879752761,0.007498729464755881,-9.81025472209614,2.813080852137866e-05,-0.0006315415213167212,-0.0007305888003638984
75.00000000000001,0.0007660944629546644,0.001786772919304125,-9.799241255030667,-0.0013545702098233887,0.0001124849473200512,0.0016077019961837234
75.10000000000001,-0.006780355582313898,-0.010434527474430423,-9.81926579561949,0.0007914659390195384,-0.0012661632675663712,3.331968446480524e-05
75.2,-0.00669190087190294,-0.005754749536203302,-9.813062952745048,-0.00037455854979569805,-0.0003675621264424681,-4.014279055997609e-05
75.3,0.0026894939210524715,-0.004535101966530852,-9.80529393709822,-0.00047960521203069864,-0.0004540935828577141,5.567986639137683e-05
75.39999999999999,-0.01716229851629171,-0.008209682709605263,-9.816679894433651,-0.001022806147752734,-0.00023156859299136665,-0.0007194174416007799
75.49999999999999,-0.009112094390294475,0.0101600723494366,-9.789175376118719,0.0009939362184823392,0.00029810890213160444,0.0011378055735803089
75.59999999999998,0.003141824369976697,-0.0026068891489537437,-9.808884859892826,-0.00033586567297692996,-0.002204816884995123,-0.0008275494680004942
75.69999999999997,-0.00829006710017962,0.004835951957069705,-9.8148102463558,-0.0017997513095213626,-2.8582755666124278e-05,0.00030050736008061223
75.79999999999997,0.007693002870244459,0.0036429938186052038,-9.786094092376954,-0.0008673995764562495,0.0013171697853027306,0.0009348456198488304
75.89999999999996,-0.00635376182283391,-0.001280909827784625,-9.817461328814767,-0.00012391124274672698,-0.0004430605759816179,-0.00043105085201494784
75.99999999999996,-5.243284288945138e-05,-0.010358043169594735,-9.798754611300945,0.0008781153754803712,-0.0006952764881743872,0.000876511215237823
76.09999999999995,-0.010514006839892117,-0.01784016068960184,-9.806851053469204,0.0005465442673336902,-0.0007393451122290028,0.0005400150879412967
76.19999999999995,0.019604846599627416,0.030123769332554444,-9.818729425549726,0.0003266511036154567,-0.0012285683479975947,0.002845309603471332
76.29999999999994,-0.0043583563536604185,0.008599909597773101,-9.809055412347089,-0.001057061898006422,-0.00020683561887197756,-0.0013398059804269342
76.39999999999993,-0.006399438661090055,-0.0026811559028636794,-9.807750547389196,-0.0022717294797478,-6.560791487122482e-05,0.0025668213108454444
76.49999999999993,-0.009517334874412265,0.0032585261453072206,-9.814231539997978,-0.002822217225795356,-0.000995416767795776,-0.0006696564440284148
76.59999999999992,0.008469876578256735,-0.00035079876368082776,-9.812203067584916,0.0006732244887757094,0.00012913785493253227,-0.00015111059089520547
76.69999999999992,0.0066821839436102416,-0.013762409831908937,-9.812062412889516,0.0012533264664103799,-0.0021401295818133264,-0.0007768259521334011
76.79999999999991,0.0015631529797015334,0.002291266608348444,-9.813363267824514,0.00042992048216847147,-0.0008865498241007644,0.0009932766179540275
76.8999999999999,0.0019469567734289126,0.01815184797702661,-9.801534033924435,0.0005515913701030692,0.0014160989919595208,-0.0007894053303214374
76.9999999999999,-0.00293227135861464,-0.017501900964106074,-9.8012951277398,0.0016541665030120588,-0.0004854873853905867,-0.0012033177715401904
77.0999999999999,0.011248369487772936,-0.007373061300903289,-9.815044246784428,0.001539505788642072,-0.00035873899736556486,-0.0001726185984869096
77.19999999999989,0.01611851915163453,0.005908806219791308,-9.820640318650499,0.0015052985340805692,-0.001741355183254899,0.001021315888919924
77.29999999999988,0.004901821903215571,-0.0052339615905806,-9.817788982922155,-0.0011124029498247225,0.0017290001121601946,0.0001382616928992808
77.39999999999988,-0.006306218254508992,0.005739161501217803,-9.797953888721706,0.0003188480968446466,0.0006969836087199982,0.0009678405079716054
77.49999999999987,0.0005875098437150642,0.003165905173689822,-9.811153752710299,-0.0009923482674781495,-0.001267016535436748,0.0004644495471529314
77.59999999999987,-0.00708402614064011,-0.00021056635339765202,-9.812477171341865,0.0009702840458355168,0.000279963343667367,0.0003203005858310752
77.69999999999986,-0.002865158032802593,-0.0013800539480817093,-9.81339902601041,0.0002496022974153477,-0.00172409501428731,-5.9199732117609545e-06
77.79999999999986,0.0036755670760768027,0.003932617714941952,-9.820774914795686,-0.0004211067727282637,-0.0003807749658466138,-0.0005261409496480637
77.89999999999985,-0.012168655994764466,-0.010864322495877135,-9.809909055063253,0.00038548313318803774,0.00014799307417079596,-0.0008576517106627418
77.99999999999984,0.00384983468891442,-0.001987923608798469,-9.814955282275315,-0.0009252851005984823,-0.0005093556343616868,0.0007308076970070954
78.09999999999984,-0.0018397272263039246,-0.001231393520982019,-9.820010273210432,0.0027904216881875386,-0.002264949596839835,-0.002014082156844414
78.19999999999983,-0.005248401949817776,0.0019941381256788717,-9.792264673885512,0.000513779510118961,0.0003008223744051671,0.0009334755540487455
78.29999999999983,0.0009507839919159553,-0.019550956868684605,-9.807451589591727,0.00021729987645769064,0.0021696576669512396,-0.000707128395330251
78.39999999999982,0.012573756412528126,-0.013601809849640578,-9.794672175733046,0.00013259123566437535,0.0008369866004411593,0.0007176454744717753
78.49999999999982,0.006778080706007418,0.0009754468827570965,-9.816559813357943,-0.0001596922736327093,-0.0007654317007125321,-9.886373594555953e-05
78.59999999999981,-0.016088614791390787,0.0017223650287264101,-9.800227163783463,0.0012019072538377892,0.0013138162326986817,0.0001663097428819938
78.6999999999998,-0.0015415270857755533,-0.0025524165306179646,-9.8060764064728,0.0007171068169318209,0.00033814141413352416,-0.0013315815359707815
78.7999999999998,0.01378052948631428,0.0047748156544728205,-9.800093137571043,5.192492099132242e-05,-0.0002609934917921665,0.0019513826643800455
78.89999999999979,-0.010698328597191852,-0.01688139163209385,-9.790042032540136,0.0002403939818105377,-0.0004283694449741911,-0.0005711999179109458
78.99999999999979,-0.020060803946689423,0.018672709303187908,-9.802943697670008,0.0005099907805577279,0.0008246726896315857,-0.0009008287608754029
79.09999999999978,0.00458394297678009,0.010857135976881704,-9.832049236666474,0.0005959640626123412,0.000747076157172831,0.00011532143952105139
79.19999999999978,-0.008855667792869611,-0.001655618470477207,-9.814581861447124,0.0003628423289952963,-0.0005320928248025658,0.0007782574522671012
79.29999999999977,-0.005183372082346639,-0.005198438476311308,-9.79831466474495,-0.00016073543695305827,0.0005316156101784506,-0.0012835725881105956
79.39999999999976,0.015208773638609474,-0.01452172827360705,-9.809030665161355,-0.00022454704951986148,-0.0007630577845056287,-0.00026055095969857226
79.49999999999976,0.012351220515101869,0.01738945995115714,-9.812366422138776,-0.00035746547681613216,-0.0018779352239372182,0.001728956112728065
79.59999999999975,-0.010660735295756417,-0.009099151409403889,-9.808951894323037,0.0007340559630879957,0.0015232610627361177,0.002188449116865667
79.69999999999975,0.007538359898575543,-0.004801587894755182,-9.816568025911597,-0.00017850040553463701,0.0008044475129257361,0.0009687308122715011
79.79999999999974,0.006169268606534821,-0.01894449644754919,-9.815661655925792,0.0014566884511899843,-0.0005330868093605919,-6.64956422345562e-05
79.89999999999974,0.027267988080303122,-0.0007393321708416303,-9.795765672732623,0.0018387111558209007,0.0007581751710148765,-0.00042106685359050817
79.99999999999973,-0.022800268881278632,-0.008589368229527519,-9.80356685271257,0.0005919608599627804,0.0011722707069070817,-0.0010920206420870476
80.09999999999972,0.0019944740338509177,-0.020501091068236978,-9.818828085741359,0.0005293035789155914,-0.0021822443400612164,0.0008305479925389722
80.19999999999972,0.018306435885819056,-0.014360873672317314,-9.81258870534595,0.0017184725119208687,0.0005006359909678696,0.00041117867671068423
80.29999999999971,0.001075078955396326,-0.013718043140286486,-9.81136835883343,0.0012866662723846954,8.697560639875537e-05,0.0007355368518813574
80.39999999999971,-0.0036174575536678556,-0.008714397370006153,-9.814312177838008,-0.0010530328978188052,-0.0013623083878668495,-6.055279653495216e-06
80.4999999999997,-0.0022877599699475414,-0.009403944142330962,-9.803039308048705,-0.0009315867323285139,0.0004255876552341913,0.0005122241310233317
80.5999999999997,0.01665958885796101,0.0034205221893252365,-9.80210409675513,7.470964180015963e-05,-0.001407186743927608,0.0008695675524576117
80.69999999999969,0.016793879697439115,-0.001242804834599012,-9.789062233508131,0.0009238617787154833,0.002000980610930369,-0.00016734423308833367
80.79999999999968,-0.008846708274216195,0.0005597743582421531,-9.817262377972247,0.00019845583584001268,-0.00024163650002721667,0.0001783579905566275
80.89999999999968,-0.0009004540382016302,-0.009742539645685567,-9.81529406151381,0.0012691250687827662,-6.350318125699569e-05,-0.0013269795712819203
80.99999999999967,-0.02016802397381654,-0.003224253751189573,-9.807212006438883,-0.0011802184739493164,-0.0017873242445220847,0.0005746647881311219
81.09999999999967,0.03194113035902722,0.008719969174513783,-9.819966103639954,-0.00011765598286415216,-0.00011884710509203313,-0.001257927734110445
