timestamp,ax,ay,az,roll_rate,pitch_rate,yaw_rate
0.0,0.01498608451040871,0.0037027586636571336,-9.803111213566224,0.0008759105400831804,-0.000838837032899822,-0.0015639548119470094
0.1,-0.011240414901176742,0.003404789598915912,-9.799434459944663,0.00012779269935267695,-0.0013599308660532956,0.0014210088074879418
0.2,-0.01605383194314755,-0.004881875099543304,-9.815699330823335,0.00025060406167008394,0.001097143378418844,-0.0014772992335820136
0.30000000000000004,-0.0031894709130940585,0.0031552549471236192,-9.821670159041368,-9.13322563465736e-05,0.00018834937607127905,-0.0013199231842083304
0.4,-0.013073138763751404,-0.0005486959088656915,-9.812266498002431,0.00022123182587261981,0.002211372314500957,0.0009105186799064018
0.5,0.004450584941066519,-0.007101624916733147,-9.80069573397987,-0.0007820825730978075,0.0015694582466919944,0.0012021985914334157
0.6,-0.020047583889700956,-0.011750441323689883,-9.811911815235494,-0.00040137199960655907,-0.0012608244595317237,-0.0012101772104283726
0.7,0.00722141053671628,-0.0053223772337562016,-9.825287014899645,-0.00028059435021491117,0.0009695415395239792,0.0016984536142224498
0.7999999999999999,0.0006178777971487199,-0.003146007045039736,-9.818043503935009,-0.0005204970384169061,0.0005329974564400139,0.0012688619449376351
0.8999999999999999,0.012435034844628661,-0.0024390257524441934,-9.80115068160897,0.0007635474184868615,0.00045368804110841116,-0.002435368865471949
0.9999999999999999,-0.0006307333572257823,-0.0028366467732570126,-9.796726860947123,-0.0002831032720128391,0.0004511457646651831,0.00027711769785585
1.0999999999999999,0.012667965129816905,0.007624327617894569,-9.799712680890579,0.0014955628192148086,0.0009590022174083037,0.0007981215098239742
1.2,-0.0026064965013525847,0.0009741353291498946,-9.78837621786442,3.4233904920278985e-05,0.0005097197146380476,-6.0004135695318605e-05
1.3,-0.0029086139383064525,-0.02994772074955674,-9.792884171204363,-0.0011818665724633557,-0.0008317250756159808,0.0013700143704420793
1.4000000000000001,-0.02353596849287975,0.0002793076516617947,-9.815604831805869,-0.0018432636282065132,0.0006157272259748797,-0.0007559571929757704
1.5000000000000002,-0.0010348519485253473,-0.0042943308540603405,-9.803602903318906,0.002259747554181675,-0.0012554076923488523,0.000872555629672735
1.6000000000000003,-0.0069053533698670245,-0.00355300173541762,-9.82890310923608,-0.0011392545751724723,-0.00043123524884750323,0.0008317813782695267
1.7000000000000004,0.002456263625563724,0.0057557366091519025,-9.802687600934913,-0.0013838617078863393,0.00145251266143152,-0.00030923508809510667
1.8000000000000005,0.006848603947856199,-0.0018126559038016091,-9.807338160221382,0.0006458892692495178,-0.0022511216755179402,0.0020310312591152887
1.9000000000000006,0.001741573769237288,0.01093535723910466,-9.807822905245182,8.813497594859405e-05,-0.001321675475822737,-0.0003758504665295071
2.0000000000000004,-0.02213551423742542,-0.0015095419515360302,-9.794220851094051,-0.0018833380961844133,-0.0006878514954315571,-0.00035673959768000663
2.1000000000000005,0.011641083000463097,0.012387680010135727,-9.809375164033506,9.145868685195243e-05,-0.00016167423380334715,-0.0004742557450856088
2.2000000000000006,-0.004812641190029093,-0.004660582504077343,-9.811535851450412,7.813716670179141e-05,-0.0006354101749412685,0.0006418646451720389
2.3000000000000007,-0.00037489859405212767,0.005348065056893787,-9.823656576728057,-0.0007028369540246685,9.309050191856542e-05,0.0003000894778912758
2.400000000000001,-0.0017723196363648986,0.015401889001742525,-9.81210497496766,0.0014287007984839226,0.0013954000602173764,0.0007105741797818378
2.500000000000001,0.004454672188850551,0.005540143621173463,-9.811450553081185,-0.0011259959799080816,-0.0005217965907765125,-0.0006183102074077039
2.600000000000001,-0.004132544332986897,-0.00734705961796006,-9.820758344270281,0.00012944878334773385,0.0014228163450075815,-0.000859774831167679
2.700000000000001,-0.018431561028080825,-0.005798629471475195,-9.8223564284942,-0.0010229669527443226,-0.001299963689468461,-0.00013250943621604083
2.800000000000001,0.005224798423789303,0.02250807480970521,-9.82186542599442,-0.0014202238044209497,-0.00017596339883184416,-0.00012347197782551945
2.9000000000000012,0.016073573298766308,0.012988534840030463,-9.816741729973273,-0.002059268720174746,0.0005690085821996528,-0.0004345588053841301
3.0000000000000013,0.013676331835008803,-0.0012783866304719425,-9.811508549027582,-0.001196252285703225,-4.517983367006053e-05,0.0011683380896374375
3.1000000000000014,-0.008161517477247957,0.001983253151863791,-9.815899034456246,0.0009065264405950936,-5.748078488288054e-05,0.0005602713650798447
3.2000000000000015,0.003153794915172962,-0.008873559034463909,-9.821553177084224,0.001313336573042558,-0.00034796511059428746,-0.0010167589834045366
3.3000000000000016,-0.006525801432898338,0.01659325417198837,-9.809064255490151,0.0011112218866728633,-0.002286992882195922,0.00231844548846007
3.4000000000000017,0.0008499860359128178,0.01338958000698125,-9.81311194169842,-5.360982430111772e-05,0.0008691634772622089,0.0019092031178499695
3.5000000000000018,0.0016691736126647019,-0.006727155452428946,-9.79975593396964,0.002127085885378913,-0.0013474196782793581,-0.0008239826797141733
3.600000000000002,0.006489134112701265,-0.004285725271348401,-9.8321371384716,2.648158425183182e-06,0.00029905765941434483,0.000721491563314364
3.700000000000002,0.014130806338195592,-0.012994160752206073,-9.81533312192019,-5.175407305055753e-05,0.0004289902552188135,-0.0007283746011275109
3.800000000000002,0.0003556015774113267,-0.007661667856828384,-9.801286978177522,0.0012663698797507987,-0.0007604325086446884,0.0006197005700812714
3.900000000000002,-0.010289853945778953,0.004128336335587592,-9.824213556555792,0.0002638569351282146,0.0011761935460249178,0.0009463870277020041
4.000000000000002,-0.018403725656522603,0.0015470150323044,-9.813438242191557,0.0014423478097488134,0.0004268643607535523,0.0015051589741944084
4.100000000000001,-0.005276874854474113,-0.011364407236749051,-9.834309751778038,0.0003153112535507207,-0.0002615860357222285,0.0003369421690113253
4.200000000000001,-0.0014437325173528818,0.0025859564601232597,-9.795282881026282,-0.001199264047989763,0.0005575378137678048,0.0013078776030722038
4.300000000000001,0.005478780097240276,0.01887464003459516,-9.812996581035057,0.00017860027843527224,-0.00027650860044113634,-0.00029700955940817683
4.4,0.018078340148944824,-0.014154317130744791,-9.81564894903647,-0.0004918151687346582,4.36724390959451e-05,-0.0002644550424314996
4.5,0.0065300196212944375,0.005466847216794694,-9.791718783087301,0.0008916686412408916,-0.0008925655318662483,-0.001567280276271952
4.6,-0.003927304988755979,-0.005951886539072625,-9.812413319179372,0.001347112598796172,0.0003592141228252142,-0.0013386236974086102
4.699999999999999,-0.00775361593749999,0.016171035717713417,-9.821890120858013,0.0007505654004921486,0.000865749454544144,-0.001180256031902497
4.799999999999999,-0.012935395771612913,0.003363195789910353,-9.806943704453884,0.001027125007527626,0.0005726203923603996,-0.000983969207473249
4.899999999999999,0.01825260045714174,0.0019353195151871438,-9.808548243172512,0.00021240793629699023,-0.0015053826850938044,-0.0007947268699007106
4.999999999999998,0.008243601843127137,0.0070251119669457185,-9.81497278374128,0.00012267727645595756,-0.0005239849906819979,-0.0005364463286218612
5.099999999999998,-0.004254906891564966,-0.011027580313114477,-9.817166086393998,-0.0001107626781108498,1.2388292444680357e-05,-0.00013298385263682986
5.1999999999999975,-0.0017953309783959792,0.004286248093311324,-9.80873201768549,7.611590059974982e-05,-0.0003827263859461884,-4.019427659878856e-05
5.299999999999997,0.008023875920018375,0.006993792890008276,-9.812866233897983,-0.0006084217120486076,-0.0007057029811851824,-0.0010499453949493168
5.399999999999997,0.016214670062783113,-0.008338044794707728,-9.80061108449108,-5.0137594747582405e-05,0.0006608732609695527,-0.0005649819364942157
5.4999999999999964,-0.0021643898579733205,0.010304377004514458,-9.7941387651459,0.0002309904045057891,0.0011696809138651177,0.0007423780396094526
5.599999999999996,0.00984219051601436,0.003818210037382697,-9.810408854541913,0.0024096346025672057,-0.000281491258892416,0.0009111529562898142
5.699999999999996,-0.0018105805730222193,0.00483905875175354,-9.81524051689058,-0.0006681101120534131,-0.00011445602204600717,0.0008737145628884724
5.799999999999995,-0.010712263414599368,0.014167599308144062,-9.80892252221357,0.0005028537377716107,-0.0006301678749364355,0.0011514411473379786
5.899999999999995,-0.0009759191990142799,0.004719045836197139,-9.825885489114466,0.0019876893473056395,0.0008605813583912022,-0.0006445144871836648
5.999999999999995,-0.005633956031097987,0.002524821554670571,-9.817604157847658,-0.0014061811501205354,-7.466394652374366e-05,0.001415703720462273
6.099999999999994,0.006969188624754715,0.005200133070193517,-9.814303467012177,0.0017325373459506938,-0.0008806734678966738,-0.0007943216633730359
6.199999999999994,-0.011709065165069118,0.004841872383597211,-9.817668886310619,8.82909452573458e-05,0.0008681526522459283,-0.0015448420466696285
6.299999999999994,-0.007680146576117422,0.006637975707016587,-9.808175195359997,-9.116956463163907e-05,6.045413557374385e-05,-0.0005899358498960791
6.399999999999993,0.0034039950030403747,0.00863197156957472,-9.816254455537214,-0.0006165720567373981,-0.001191675988156004,-0.00011731461199595338
6.499999999999993,0.011535741598067655,-0.0063335300374830665,-9.811807606753865,0.0014044096710380473,-0.0007976871308330894,-0.00027843755734931495
6.5999999999999925,-0.00021619436808876258,-0.001331696640449279,-9.789733688154504,-0.00017425920532980515,0.0014632245589490701,0.000601451658205422
6.699999999999992,0.020853487326833155,0.02231292232047461,-9.825817447229216,0.0004871461426699408,-5.305786149694703e-05,0.0014722058563272238
6.799999999999992,0.01762352252678231,0.003223118928713073,-9.81062354256533,0.0006116195979507084,-0.001100712776431269,0.00044172847454557017
6.8999999999999915,0.005791986709141471,0.0017245544070361614,-9.819216495623634,0.0008498128391180754,-0.00016720709235621951,-0.0004972703691070754
6.999999999999991,0.0041443205893394895,-0.008479548822731149,-9.800382339605243,-5.4955649884379857e-05,-0.0008930544368184644,0.00032100354040284063
7.099999999999991,0.020009253954005032,0.011108790844727266,-9.824123678047858,-0.0009127300812081435,0.0006540938266962273,0.0009653960721733141
7.19999999999999,-0.0017425047597209493,0.0077697088224088886,-9.821070333534216,0.0008611890977406919,-0.0014931525017667891,0.00042454980664112887
7.29999999999999,0.013318749636970342,-0.0009636860278245588,-9.802483915059726,-0.002344849541609764,0.0009099028553815728,-0.00015188343633696467
7.39999999999999,0.008086344232559012,-0.013180483327177455,-9.79162870196129,0.00022498359011878315,0.0017023161771357077,-0.0012627549208831016
7.499999999999989,-0.008377690573252067,0.013740725064477426,-9.804915808141178,-0.0009579405074578772,-0.0006357961745335272,-0.0007303996024038671
7.599999999999989,0.01071579641903705,-0.005805979008953726,-9.80945397009061,0.0010559186541306853,-0.0008296786282209253,-0.0004902186230792101
7.699999999999989,-0.006661956423297145,0.012416463887723148,-9.814871965187654,0.001049061737905449,0.0007566388311884156,0.00045614310519314337
7.799999999999988,0.008663049903743952,0.007517015312087303,-9.8145763486036,0.0008589789203273882,0.002973318769574512,0.0005899119769635917
7.899999999999988,0.0003460147259486374,0.00138503797583772,-9.812421234704251,-0.00014198626061710776,-0.001993205964420791,-0.0009433353329465993
7.999999999999988,0.01059374926912105,0.004054071507749464,-9.806238604524399,-0.0006340568302845634,0.00023395580077453006,0.00027018795653611466
8.099999999999987,-0.005658025151751063,-0.016002057853967876,-9.818293600127983,0.0004109168266151381,0.0007521019746747409,-6.177477992371744e-05
8.199999999999987,0.005609967514603179,-0.01727833681593651,-9.826762601919786,0.0005097818500931944,-0.0010004098414795046,0.0019267435827738503
8.299999999999986,-0.0003643302915183587,-0.01397242847109431,-9.802002421877685,-0.0012671134995900217,0.000620831585625654,-0.0006807677015119597
8.399999999999986,-0.017019661759584394,0.017036885078092152,-9.817943226372998,0.00034174287515177626,0.0003303858586398042,-0.0008557786174355193
8.499999999999986,-0.011281597865534891,0.0063886056360974676,-9.79367386163589,0.0010070423032692464,-0.00023738508168244423,-0.00018382654231781313
8.599999999999985,0.006926835713157727,0.004646831192451398,-9.826260851010506,0.0007678763719442672,0.0005142193128486758,-0.001544030661178665
8.699999999999985,-0.001448563335556249,-0.0118928369284085,-9.802073924643116,0.00048520042290599823,-7.446212444316054e-06,-0.00021356214425630957
8.799999999999985,9.734380325618622e-05,0.001829755591726525,-9.814085742427398,0.0007863797301531993,-0.0006179191159972017,9.72405600647455e-05
8.899999999999984,-0.00478845042363971,-0.0014309226666116273,-9.805386879485992,-0.0018414500394883517,-0.0017817381298865192,0.001094956880895171
8.999999999999984,-0.006559985899576431,-0.010996635946134979,-9.817079462745577,-0.0008216189317674701,0.0013780634538033676,0.0016537095555847355
9.099999999999984,0.0029424552539848237,0.02013283115827488,-9.819375934693944,0.0008482514632763836,-0.0007011849775761303,-0.0006192162340967135
9.199999999999983,0.019373940990824363,-0.0010718785471940362,-9.816795874515956,0.0006020487707453353,0.0018002256633978583,-0.00152824717784477
9.299999999999983,-0.0033513865280877355,0.004092507006442572,-9.820872043726085,-0.00024567793164181483,-0.0012696403678345075,0.0004981716913965891
9.399999999999983,0.012863204271158125,0.0011406635486384473,-9.815296149564078,-0.0011506486165005106,0.0012960370841182726,2.9711866452761163e-05
9.499999999999982,0.013187220611482009,-0.007527027460939543,-9.819671275664744,-9.592222355479603e-05,0.00023444601666926674,0.0010933513403542177
9.599999999999982,0.005520128170702922,-0.0014667218858913334,-9.818889575570905,-0.000833319872061781,0.0006282341957412323,0.00041966740632803766
9.699999999999982,-0.0002408244679848767,0.004312679208629723,-9.794392654212684,0.0010400059722446725,-0.0005428010672038875,0.001405958204481134
9.799999999999981,-0.012009289215031638,0.0008790370101579104,-9.81248059706795,7.359861878324464e-05,0.0004641971837066605,0.0002418936241045924
9.89999999999998,0.006073130737131469,-0.014267892741687228,-9.795132723310429,-0.0003730855653056152,0.00019780374809925488,0.0013221501450478
9.99999999999998,-0.004176961070539827,-0.006923598918892984,-9.82520853734518,0.0009287181154089411,6.67724104746952e-05,0.00025463324315860923
10.09999999999998,0.007155265887480236,-0.005635084978381589,-9.830982469868417,-0.001667151729835431,0.0002623920012737209,0.0007530468428824739
10.19999999999998,-0.004160284940035208,0.006946972283684675,-9.812087461109632,5.552897094860455e-06,0.0012414782267509863,-0.0033151394263461827
10.29999999999998,0.0023117399884673897,0.009781861426373127,-9.821052219315298,0.0011041096101767293,-0.0017167402043296149,0.0010243470758826978
10.399999999999979,0.00740209667194578,-0.0025171966140630814,-9.799890876948696,0.0009207173843043254,0.0009565806022336748,0.00040893344552942796
10.499999999999979,0.006273376721333685,0.01763487760665286,-9.825626524685303,0.0010713069309262273,-0.0013841069355573978,-0.0008911777865905331
10.599999999999978,-0.00883734422404665,-0.015152987642171612,-9.811696435245864,-0.0017999069803705837,-0.0004765444735582302,0.0004126923728005852
10.699999999999978,0.00203378882913535,0.01827717982370645,-9.797365765166948,0.0011317217250294417,0.0001679091778317398,6.741443418518293e-05
10.799999999999978,-0.0016223138615416774,-0.01605076684594306,-9.807838914007606,-0.000935444289874805,-0.0006542951202646438,-0.0014805170101540592
10.899999999999977,0.0006286433422602484,0.005069281876824557,-9.802079790760606,0.00031718917303817906,0.00011475725445891534,-0.0006927444438442304
10.999999999999977,0.007325933980167233,-0.01251592662507582,-9.802328730140307,-0.00023002880515850382,0.0017062789705164366,-0.0002916822831377259
11.099999999999977,0.007649251450193933,0.0023132521887925606,-9.803277830542035,0.0005954907459123691,-0.0022844433420566097,-0.001315881794989038
11.199999999999976,0.0054703915643650024,-0.006768112404494934,-9.820225903231917,-0.0005898513106420001,0.0008080917040156649,0.00011162257008774899
11.299999999999976,-0.011914518536320506,-0.00021343146806482676,-9.811727466818782,-0.0008310002652860036,0.0022210385363885116,-0.00023758191982726367
11.399999999999975,-0.0015816286462140318,0.005102410994818283,-9.808423972860835,0.0009181598151334181,-0.0010600944065389765,0.0001469773785844133
11.499999999999975,-0.012509752012044508,-0.009908658735485019,-9.80474808774103,3.439510686650494e-05,-0.0010916437206950026,0.00045838695190040786
11.599999999999975,-0.00043765839879365,-0.016687315511824834,-9.820629107197746,0.0009572596600023438,-0.0003294090355085607,0.0011640300517910952
11.699999999999974,0.00861652775993194,-0.013760956526335966,-9.794072255739641,0.00020223013492752295,-0.0018747835309026982,-0.0009539365778303778
11.799999999999974,0.00035545022863619244,0.00013094625700445095,-9.818769967881083,0.0026216023739961177,-0.0007172551916907645,0.0010652968155132284
11.899999999999974,0.002611808288027016,0.011621028844286762,-9.8092866643328,-0.0008705546853672463,0.0011721997678581695,0.0006717451686256415
11.999999999999973,0.002256584077072193,0.0011121560433185191,-9.804878195508227,0.0007682690404577023,0.0013222963584055654,0.0022210448258365018
12.099999999999973,-0.006724584110956348,-0.01558153039027967,-9.813592630517723,-0.0007984749029083721,0.00016054285535336622,3.872746371226492e-05
12.199999999999973,0.00597918827455085,0.0074586150481960566,-9.826450806074236,-0.0002748422956808771,0.0017284174310204883,-0.0007966256157986972
12.299999999999972,-0.012714115979806465,-0.009454438970160689,-9.787063303530122,-0.0006220945631426846,-0.0010841485255159945,-0.0010814025661687707
12.399999999999972,0.010531948640439064,-0.017094226050120818,-9.822676736564341,-0.0002792480555280231,0.0008087751968633374,-0.00016717612999335026
12.499999999999972,-0.017574714763577963,0.027620760934809706,-9.82342123501819,-0.00011005705492353334,-8.614514564789592e-05,9.684267034419711e-05
12.599999999999971,-0.01577407488805071,-0.00840075458722386,-9.814750571277413,0.00019089993047117826,0.0002774466927168701,0.00017610749333458095
12.69999999999997,0.008952584154647027,-0.010662684320888738,-9.804354890129726,-0.0017804830655078776,0.001240608797282828,0.00022833922944144293
12.79999999999997,0.00438241448418181,0.0069818598753805805,-9.804959698034333,0.0010982424209158178,-0.00019205888539746728,0.00039309187050590877
12.89999999999997,0.006462366326103244,-0.01818848157271601,-9.829938525667476,-0.0006082102190398543,-0.0005812871448753299,-0.00011605429331625511
12.99999999999997,0.00445117579793046,-0.011728407488359053,-9.813302644273463,0.0003009330352952006,0.00041488018682394283,-0.0006730403593543713
13.09999999999997,0.007103038009755892,-0.001102366007708928,-9.812300732698478,0.0013928266870961534,-0.0007164230213548158,-0.0021796837338748866
13.199999999999969,-0.0014226743040880998,0.004570802993706281,-9.806007886284005,-0.0008437346435004885,0.0006528860062069982,0.0005528860614959748
13.299999999999969,-0.0014792112058373203,0.0021913780116969393,-9.790833585573406,-0.00013676480854634679,-0.0010129581741060354,-0.000394187320531943
13.399999999999968,0.012250269813780286,0.0026662230624983864,-9.819820592470498,0.0015297835520510412,0.0004550294986817518,0.0007020775525982744
13.499999999999968,0.0011191550286596757,-0.030304076419527794,-9.818690349885198,-0.00019297104976273528,-0.0010187274833335163,-0.002410791538942557
13.599999999999968,0.006530468685313677,0.0012222188263440275,-9.801040549049628,0.0009525890291597788,0.00048129175998418535,-0.0007498045209815732
13.699999999999967,0.0007516423266887251,-0.0015912445751714117,-9.804102512148924,0.0003679930422125965,0.0007220858274570975,-0.0011453921080654956
13.799999999999967,0.014401038050297502,0.005839376867995531,-9.80231320323423,-0.0007641117903843515,-0.00206218162994395,0.00022179899068193305
13.899999999999967,0.0028935867656258818,0.00755631309818994,-9.806169648314153,-0.0006631967049830341,2.8812618867980355e-05,-0.0003869915190695656
13.999999999999966,0.003082879773272467,0.010319592362464687,-9.818162577271021,-0.00010002125999096518,0.00036726506804344986,0.00022176094771471274
14.099999999999966,0.004523410274224446,-0.007134427124235433,-9.819703544826702,0.001400408488688414,-0.0004246010580992916,-0.0009814895339892297
14.199999999999966,-4.1227987224290235e-05,0.011075371424668204,-9.802374899794916,-0.001138272582955491,-9.908985072725129e-05,0.0009078322171961095
14.299999999999965,-0.002801804708148816,-0.021380990657577977,-9.813897065741292,0.0009854929559409953,0.00011028495147822133,0.001295263719802412
14.399999999999965,-0.016484567569722743,-0.004078259759751176,-9.795646614391998,-0.0012734881416479058,0.0010727917768013557,-0.0005199913965058063
14.499999999999964,0.01452694811334114,0.010353550436781768,-9.805513683295452,0.00014582429087751052,-0.0007964600242544946,-0.0013106337847311141
14.599999999999964,0.0024800315515293597,-0.007387739086882153,-9.810793337712235,-0.0010866104738332058,0.0016097117870235017,0.0002034478495002384
14.699999999999964,-0.005136695710820121,-0.008132642283557515,-9.814678329547691,0.00026529879741326836,0.00026541725989010195,-0.0006857607887459786
14.799999999999963,0.0037724839974772905,0.017205598192426445,-9.820183094005474,0.0009502728209539193,-0.0011580787080501917,-0.00014284121641344687
14.899999999999963,-0.008649873692145229,-0.007568761325813816,-9.79953281293442,0.0005501046526865447,-0.00018241815345046604,-2.584187412791011e-05
14.999999999999963,0.027327179841122186,0.0004494072708404877,-9.812350934548979,0.00042792904986961523,0.0008837311970844262,0.0006373015820143307
15.099999999999962,0.013427253662602032,-0.012996253486334515,-9.826531474829913,4.81706429681413e-05,-0.0006944612508249715,-0.0014702882287126234
15.199999999999962,0.007355947205078855,-0.006031487862490821,-9.82628744246456,4.303541827212179e-05,-4.0640244237441236e-05,-0.0018577381762698733
15.299999999999962,0.01315460627844398,0.007295741236144779,-9.808214232451173,-0.0013892087549168507,-0.0007022978704058733,-0.00047390214900829133
15.399999999999961,-0.004437596382957443,0.0056658202898627495,-9.806263768408133,1.8009965375268667e-05,0.0031073775503018966,0.0014924076882569892
15.499999999999961,-0.02250939568647741,-0.004615037601361183,-9.824481191979684,0.00032986792281136564,-3.0581274201302666e-05,-0.00029343493448813924
15.59999999999996,-0.0034536164162743284,-0.002661084434418763,-9.803167878769194,0.0003857218925219125,0.0012614514654455083,-0.001123353859138877
15.69999999999996,0.005200015869292724,0.006327774706683239,-9.814646442474286,0.0005424247087583411,-0.0004827730282951754,0.0008746329341785726
15.79999999999996,0.004713097223995007,-0.024607696490093336,-9.80536309175302,0.0014384607270521502,0.0008458148704847122,0.0025646871504610294
15.89999999999996,0.008551168210422856,-0.012096676096448818,-9.81031773787769,-0.0008936431577043515,0.0013757914891262336,0.0004716725473263042
15.99999999999996,0.021634739977714906,0.002761456257672663,-9.792155226884029,-0.0002235637357764512,0.00013877657774234234,0.00043289847105798545
16.09999999999996,-0.005080684987305868,-0.021175991562215443,-9.813563657294914,-0.001091362825079152,-0.0004974125286242652,0.0012973633012145042
16.19999999999996,-0.0034297948629160714,0.004673173051839917,-9.822576469380785,0.00023434915789635104,-0.0006508505962302065,-0.0013784680997829557
16.29999999999996,-0.004763653660628002,0.010324312708992712,-9.810133735979706,-0.0022593036576813723,-0.00022271440826524162,-0.0011503147557803282
16.399999999999963,0.010933759106224428,0.0013568035189557735,-9.822644603722985,5.2445206872896116e-05,-0.001066534084801545,-0.0002877103470695941
16.499999999999964,-0.01082939515215444,0.0058724589078428995,-9.817389560660482,0.0016102875711736706,-0.0011988184249948444,0.0017291178030154435
16.599999999999966,0.015198150953768547,-0.005170207289526717,-9.795355646670297,0.001114052349723455,0.00018311269053808692,-0.00021704802017481891
16.699999999999967,-0.0014469577762513152,-0.01677670791457901,-9.81499200849945,0.0006310175220280143,0.0021768543737060073,0.00017187746989341768
16.79999999999997,-0.010969991556884929,0.012959023981107515,-9.802822204987821,0.0015524162441641356,-0.00026629429956803957,0.0012784393588197878
16.89999999999997,-0.0003328648468985138,0.009911048864055205,-9.813978090782113,-0.0004511923355188176,-0.00035051233874437384,0.00094279356713669
16.99999999999997,-0.00762297316292701,0.0063714505515564115,-9.809833658201455,0.0005102864696705988,-3.4795724359289484e-05,-0.0011593198987652773
17.099999999999973,0.0025203253553455172,-0.006327422360767049,-9.805843692356751,-2.0752829251877314e-05,0.002583944948470792,0.00039902363710486
17.199999999999974,-0.006217827833918577,0.010127720071110789,-9.815595479437354,0.0004176727505133421,0.002167566816319465,-0.0009021700050266036
17.299999999999976,-0.012762590457090994,0.00041033824741440277,-9.822904721715352,0.0010672555708668052,-0.0008755141683491067,-0.0006751485147760398
17.399999999999977,0.01725980393349545,0.010176014782479646,-9.81458929222814,-0.0007381008445605609,-8.639084259013059e-05,-0.001295232272625638
17.49999999999998,0.004815280475082087,0.002703694295172643,-9.796256040538902,0.0005789937519124692,-0.00011453338422394775,0.0018215100294698713
17.59999999999998,0.011331880985725254,-0.004503010235702703,-9.815568189859395,0.0006005889312325627,-0.000958860169099768,0.0009446472587145264
17.69999999999998,-0.003333917146974779,0.006071241092011589,-9.816060786847936,0.00025384688830260564,-0.0008564145351015,-0.000978735800908227
17.799999999999983,0.013149194621896574,0.006754255156979264,-9.810954944672737,-0.0006303091895090128,-0.001077959134622192,-0.0010487604151842647
17.899999999999984,-0.0037195666082427033,0.016319552031180413,-9.80355951740491,0.00020643657147533285,-0.0003496896085913035,0.0007739428420394614
17.999999999999986,0.006145313007917577,-0.007511896628578175,-9.815622359784399,-0.0003248724384179635,6.094958665616251e-05,-0.0012652053028661134
18.099999999999987,-0.013128821994609147,-0.00024279260275070655,-9.822470827216547,0.0003422452249868145,0.000978447094121304,0.0011917298016027567
18.19999999999999,0.007045210951003228,0.0028055103105519047,-9.813869101445466,0.00022529935155437742,-0.0001614708994058362,0.001009651036812953
18.29999999999999,-0.003662524121459878,-0.009089512021649402,-9.805110049710748,-0.0012386700275543174,4.398552123595369e-06,-0.001180520847489807
18.39999999999999,-0.01080687777394839,0.01401288201469854,-9.805057262668827,-0.0004043918715429744,0.0022179854719466,0.0006903248785675772
18.499999999999993,-0.013079666922364204,0.0003728564392615958,-9.820111393007776,0.000301401519242644,-0.001448567397867836,-0.0002129647249397212
18.599999999999994,-0.0084699539464212,-0.012185453784705978,-9.800464988652799,-0.0007809653679937021,0.0003657290328459204,-0.0003562772188461446
18.699999999999996,0.0025189504607932528,0.002097565360316472,-9.81909158342282,-0.0003707652303757615,0.001530168352907368,0.002642299921771062
18.799999999999997,-0.0030122656640983675,-0.014065600512640327,-9.809061444668133,0.00016934024433599333,0.001421802798698048,0.0010251502922699596
18.9,0.0029028399853846944,0.006503242415704086,-9.810984791931492,-0.0010727602507610168,-0.0009303820716606826,0.0013609107483415113
19.0,-0.016189859600719017,0.01748296663185239,-9.800147409183518,0.0009307926464617262,-0.0007489518725875635,0.0004111045006369976
19.1,0.00693987077435449,0.0006765078090309144,-9.824687036131715,0.00047921921669664454,1.7150925245440756e-06,0.0010227874056464284
19.200000000000003,-0.009582756823595606,-0.0016591300251287957,-9.81683548346226,0.0003879010515909865,-0.00011809054922998772,6.0179287554339004e-05
19.300000000000004,-0.0031543787925528643,-0.013007238012010647,-9.81515774197195,-0.001253891503489722,-0.001062241071747487,-0.0018803688757059018
19.400000000000006,-0.006987083692081579,-0.007639763972111491,-9.813152737089569,-0.0006435010122061585,-0.0006988245854193896,-0.0014841975922857949
19.500000000000007,-0.01596494121459737,0.010321678285159333,-9.814516612525603,-0.0016460499033313328,0.0011076448000918507,-0.00020558274661276402
19.60000000000001,0.009303924655487527,0.004209730445304947,-9.828279696050863,0.00030285354389885576,0.0006479066953669059,0.0005208346937194276
19.70000000000001,-0.009145459866042972,-0.005456078674201344,-9.820595385685419,-0.0006999424186353834,-0.0010602323110172642,-0.000310770205645239
19.80000000000001,0.0029954356407190384,-0.02038896454197317,-9.818245028246391,0.00016899190502401044,0.0009518450250048265,-0.00030939671632341836
19.900000000000013,-0.011404604445855707,0.017678889150098326,-9.807053457114039,0.0007931244794825085,-0.001461745304069468,-0.0011592918258524322
20.000000000000014,0.007584025433846944,0.011943603676759163,-9.804147237888525,0.00010876129502738139,-0.0008244019282657979,-0.00046196882406863564
20.100000000000016,0.004195002558670473,-0.00798588781559926,-9.80312933488416,-0.00029865447016537834,-0.0015256446271676083,0.0008652003353815292
20.200000000000017,0.005292882601369764,-0.006349943320905247,-9.813181288937615,-0.0009171759747236645,-0.0003991220342258823,0.0012404287094663956
20.30000000000002,0.0009542137371281644,-0.005273846086406587,-9.811638698085336,0.0010844344091750053,1.958838827087566e-06,0.0006026617578894204
20.40000000000002,-0.0024373208167220383,0.017636483421624622,-9.806582258898853,0.0012070485782232077,-0.0014667862958934257,-0.0004879512299712916
20.50000000000002,0.011387108267923525,-0.0008673344353976927,-9.795732652074303,-0.001884880288694229,0.0002415035285174793,-0.0004158968562456467
20.600000000000023,-0.010876720386923522,-0.006400076346543932,-9.816888105094863,-0.0011273900445785143,-0.0008251613041125939,0.0006383043856707503
20.700000000000024,0.0013602000840196226,-0.012088465165623985,-9.821354216310995,0.000847853892365425,-0.0017290730519549016,-0.0005360081951311847
20.800000000000026,0.005571136448295326,-0.005798286674934902,-9.806012032952435,-0.000436116895182537,0.0005339400378989581,0.000714149872910695
20.900000000000027,-0.01944824023545355,0.0036689144648507006,-9.816125990939952,0.0007598972977962504,0.00032916857947831946,-0.0008597424521718271
21.00000000000003,0.0061742632096956135,0.005456411701316019,-9.802623563333533,0.0020620509739802807,-0.001149785369897366,-0.0005192153363260398
21.10000000000003,0.004192798595298918,0.019651667400874106,-9.796903865084428,0.0012753942774733009,-0.00031862894040850134,0.0018127665377150265
21.20000000000003,-0.011292326512077473,0.0020868774119201096,-9.799525745970005,0.0009655096919580996,0.001083521875190462,-0.0002406293981849797
21.300000000000033,-0.01694230841573554,-0.0032067403793978734,-9.797472248317977,0.0007922149087715072,-0.0018181927033359426,0.0014121138225335473
21.400000000000034,-0.0012115018572429995,0.0036204717368702767,-9.793485929902992,-0.00023067115924128859,0.0007508332176255296,-0.0005019516294203646
21.500000000000036,0.019149299002572912,-0.0006829607344454932,-9.810347881529344,0.0022682364457949997,-0.0006428397159627158,0.00023758283985171177
21.600000000000037,0.010192387427032502,-0.014537621270648267,-9.813461561017125,-0.00037759812386547304,0.0021106979630082083,-0.00022542438620570734
21.70000000000004,0.026744052911651005,-0.01585484483934448,-9.818470297813432,0.0015438244501170578,-0.0003049529071305755,0.0016738975022914052
21.80000000000004,-0.007799688323378421,-0.0072997796905212575,-9.845748219616594,-0.0009878285722733587,-0.0009500586780498465,-0.0006012265086434052
21.90000000000004,0.0055730250561562555,0.009662529283352097,-9.797903233207375,-0.0004546423570931759,-0.0027774518410530694,-0.0005640383713207019
22.000000000000043,-0.0026794577556492113,-0.0183091596995193,-9.82429572399997,0.0005251977585086292,0.0007130420715731928,-0.002159823067291972
22.100000000000044,-0.0025563308227000083,-0.0005637990619962426,-9.816845120304817,0.0010171030553554636,0.0007892584118553678,0.0002963799721124219
22.200000000000045,-0.0012735384143995763,0.0011126165761631355,-9.827346913755798,0.0010652516042025221,-0.0005056525014594153,-0.0028847037131510098
22.300000000000047,-0.004645602282983872,-0.02318235367800717,-9.813445578838314,0.0022044491935006507,0.0007884814204981061,-0.00023022531134424154
22.40000000000005,-0.009781602055533785,0.017909068573307457,-9.802379435288778,-0.0013429544684378724,0.0007912549356574531,-0.0007341170772701576
22.50000000000005,0.007161580633149494,-0.0012584921755730769,-9.810964567453778,-0.00025237257736246643,0.00037618902276658807,2.2452015010023956e-05
22.60000000000005,-0.017146782821404298,-0.003996444506540184,-9.801734322834777,-0.001052986526479699,-0.0014757405102192214,0.0016831268076434207
22.700000000000053,-0.017877223622196865,-0.0006886021221449196,-9.802665575354872,-0.0001500730596119554,-0.0014622413936446364,0.001418392566426541
22.800000000000054,-0.018846384144670505,-0.009875090834476892,-9.79172448775661,0.00020935273545034488,-0.000711603908095841,-0.0012146847803443297
22.900000000000055,0.005626645637708794,0.007088351821590816,-9.801237035948752,-0.0005083426372670941,0.0007947249367392235,-0.0004725449526790643
23.000000000000057,-0.010938152368896585,-0.010180844343493502,-9.801904107848724,0.0017331321848411462,0.0003700852055852931,0.0004760167407855055
23.10000000000006,0.003039627355635465,0.009476386902686604,-9.809858199445621,2.048660944357402e-06,-0.0004697234548203579,-0.001446811016858509
23.20000000000006,-0.0013307894113244506,-0.0018589372607085858,-9.825903968834764,0.00019353292121977532,0.00016074905080188385,0.0007538886080122077
23.30000000000006,0.0010882517954614857,0.002815492889411644,-9.80220956961154,-0.0012624225796005403,8.155940360522044e-05,0.0010852146783916514
23.400000000000063,0.01144041438827055,0.016429444493800988,-9.798242017902865,-0.00010919698051997286,0.00026242394365496636,0.0006920359210294891
23.500000000000064,-0.0206984508118906,-0.0038130911123919896,-9.803101992670669,0.0011508638915168502,-0.0006938910286659995,0.00019231202452624118
23.600000000000065,0.007449471047427757,-0.0022046904827508007,-9.802641809178857,-0.0010251296485562318,-0.0008817393568551741,0.0016202950738822097
23.700000000000067,-0.018336201213166856,0.004384757309905756,-9.808160166510422,0.0009954951969972333,0.0007242483836180354,-0.0007062904579382336
23.800000000000068,-0.005325341302206795,-0.014789627543606099,-9.823070333510294,-0.0005426643677687436,-0.000413491380997126,0.0009144600056592687
23.90000000000007,-0.0010114777384037958,-0.006950795407974178,-9.796140082554851,0.0016265774849196731,2.9847411551816594e-07,0.0006183677924672785
24.00000000000007,-0.005728165154514079,-0.002686704264848819,-9.809913870675693,0.0007330929177764526,-0.0018214802045366189,-0.00018948982736817334
24.100000000000072,-0.0020139395542491264,-0.006273274969599217,-9.81476096508438,0.00012977010114272194,-0.000793171080007286,0.0014588531664453442
24.200000000000074,0.004460535240207313,-0.010540656382668531,-9.820822448937605,-0.0005823731566338452,0.0011907951812288105,0.0020022178354248284
24.300000000000075,-0.001751967633822896,0.015135317756033065,-9.80291010167735,0.0013087994713650523,-0.00026506920882088457,0.0009028268967238079
24.400000000000077,0.012182911921750306,0.025282303798581655,-9.803407865337991,-0.00020173984453584278,-0.0010202062061187547,-4.859211011820081e-05
24.500000000000078,0.02612433411778297,0.0017531876438066946,-9.808843283129805,-0.0003646949021368642,-0.00012692052313519734,-5.860233929100673e-05
24.60000000000008,-0.004620820938761109,0.0056331638027936615,-9.806776319730513,0.000538072666766409,0.0016479372141239722,-0.00011375650973355144
24.70000000000008,0.005378525814603375,-0.0022560478798583344,-9.814631232229974,0.00040016000078939236,-0.0009757204056173586,6.261255837706728e-05
24.800000000000082,0.006941612602108254,0.011399127405475558,-9.802426412877667,0.0004938828473098314,-0.0009590972365799347,-0.00011346225574910155
24.900000000000084,0.0056494403734300095,0.01149006154358721,-9.794371013007567,-0.0010322324538757676,-0.00040905028093750746,-0.001592700307499561
25.000000000000085,0.015300854081489533,0.008250113961393768,-9.823593219286305,-0.0006589787266272039,3.519293879243453e-06,-0.0014712992488868358
25.100000000000087,0.005665798535772058,-0.0038180945233225556,-9.811508823948106,0.0014328364310132453,-0.0011935525808855255,-0.0005769453464154949
25.200000000000088,-0.0011586990667674295,0.003802138444748167,-9.807659155754212,0.0023361677357186077,-0.0011132874850475448,-0.00114666894014038
25.30000000000009,-0.0038899329748062613,-0.007749469890791019,-9.798581876134444,0.0006443738901958556,-0.0007873165011229996,-0.0006266079977632016
25.40000000000009,-0.01511662201013413,0.02855490365180112,-9.82248130442615,-5.473613365248229e-05,0.0006656092966384234,0.00034591133395882843
25.500000000000092,-0.0006565851186378291,0.005871158746376852,-9.817836469862485,-0.0009127258654458683,-0.0001714300640255644,-0.0020368022037159273
25.600000000000094,-0.004204884840975566,0.000888139379491482,-9.81415117065593,0.0006751829918458801,0.0013804868347087028,0.0005221863827184229
25.700000000000095,0.012894575290571246,-0.019225227752823353,-9.83263134478172,-0.0010084871864077167,0.0009970379468810828,0.0005515761290582614
25.800000000000097,-0.002818344830188721,-0.002478861193806508,-9.824891950253253,0.00080344854730624,7.253060782418336e-05,0.0006221314871891247
25.900000000000098,0.011775807860058897,0.008528316899237073,-9.820149066051764,0.0007069907487106238,-0.001995700293512318,0.0017828761061901188
26.0000000000001,-0.002457508803269704,-0.0014426900448047753,-9.812178688545401,0.0032288048891014783,0.0007627486498657095,-0.0017211133920554164
26.1000000000001,-0.015174034988722301,0.004352611002597624,-9.792749376780797,-0.0018504809843233965,-0.00010531301721028842,-0.0019108054473500457
26.200000000000102,0.022632501641986238,0.0005633424094450888,-9.818685666904708,0.00032726405285956695,0.0010662589726930926,-0.00011449327267706646
26.300000000000104,0.0022455517174577396,0.004539332718268805,-9.811809876965352,0.0005525170125620928,0.0015622670300589456,0.0006454188991326246
26.400000000000105,0.0014093030963420626,-0.008080932214028703,-9.821175717116,-0.0018478626731139982,0.0010866892393795564,2.4576940808078472e-05
26.500000000000107,-0.008167222995616315,-0.003518285254590051,-9.822361353567995,2.5226074677394502e-05,0.0010425348523732366,0.0007558594959578029
26.600000000000108,-0.004250028121161058,-0.011413721307553708,-9.813099326050976,0.00018515781935781418,0.00015192233714579213,0.0004032864422261622
26.70000000000011,-0.01049217313789143,-0.004640267430339203,-9.814863532630916,0.00072811332465387,-0.0021730260806918354,-0.001019404732961821
26.80000000000011,0.0007107346172820136,-0.003990670266040707,-9.812713909832842,-0.0004849650450444281,0.0011615892792762289,-0.00023580454122720866
26.900000000000112,0.010938837263833363,0.0115269133139331,-9.815573040397295,0.0005724696856339632,-8.010994869386607e-05,-0.0003289863132841389
27.000000000000114,-0.001541066556689436,-0.0036882401654914037,-9.81215597348088,0.0010710802429637954,-0.0001535048698395521,0.00016140873110859368
27.100000000000115,-0.011895908922867736,-0.010400382966122246,-9.787442506956694,0.001805738400998759,-0.0012262707488765383,-0.0005627941275316715
27.200000000000117,-0.01189266983131286,-0.006843061607978552,-9.806678117414991,-0.00047565184161489296,-0.0015239887401674295,0.0001589432584788247
27.300000000000118,-0.0045371737223871755,-0.00795320379736066,-9.806227713728541,-0.0005657025486287644,0.0006737413197088542,-0.000899477664567835
27.40000000000012,0.01709763227516937,0.005946474882610778,-9.810497983723264,0.0015368531547753034,0.0008190104154276794,-0.00020227417014667272
27.50000000000012,-0.00583506299091105,0.012135267140376214,-9.815756596143181,0.0006990149509624394,0.0003725727623300183,0.0005164310661977909
27.600000000000122,0.009273633914809046,-0.0024154307043271657,-9.799238756058532,0.0003837785383364022,0.0002668388650877161,0.001223531786808095
27.700000000000124,0.00521873837316936,0.018768903610018494,-9.808645532047247,0.00033965028309265575,0.0007545064577242455,-0.0002174906427773649
27.800000000000125,0.006208893127270699,0.01536202140318133,-9.823991376281436,0.00016126420229509077,-0.00023773960726012914,0.00012184414869523682
27.900000000000126,-0.01415018066200301,0.009514250435038271,-9.801564429680235,-0.0005517242763572543,-0.0012657943327608592,-0.00031597863468008926
28.000000000000128,-0.003739242058041422,0.01004932458415242,-9.816521038307279,0.0004504304196767166,0.0005556600243878381,0.0010003214368598944
28.10000000000013,0.01868013352588375,0.0021324787298582677,-9.8220150372562,0.00029761256175213927,0.0005855349142276142,0.000512454860453945
28.20000000000013,0.0014167681115375694,-0.008796806251976414,-9.819023847898855,-0.0005509698231701904,0.0005089954929414899,9.25839952099931e-07
28.300000000000132,-0.0023741511086827092,0.010840883461648526,-9.813821390169071,0.0016796178551543176,0.001550844848218068,0.00032343439034696595
28.400000000000134,-0.003978177567338977,0.0045033982112684225,-9.81023104157504,0.001670723038440523,0.0018400183883849725,-0.0005724310166246948
28.500000000000135,-0.004017838586640559,0.010897345575024099,-9.807197038167372,-0.0016036289903766997,-0.0008811901249618103,0.0017279398562060036
28.600000000000136,0.005373069229614054,0.0028962136254385897,-9.807224087329269,-0.00017822192272414007,-0.0006756640624783847,-0.0004892611583411055
28.700000000000138,0.00011395399982701057,-0.023128147554940106,-9.823503287163621,0.0009006805423269928,0.00011966935316021575,-0.0004736279053828106
28.80000000000014,0.00640298407026146,0.014567828633371088,-9.805745230093164,-0.0011403663689255796,-0.0002582481145462185,-0.000664428355693269
28.90000000000014,0.014198551751503521,0.010724367180470372,-9.801324770722584,0.0007072329684260781,0.0009902112694389494,0.0010980648529467683
29.000000000000142,-0.0013965733848860654,-0.022617794131927733,-9.800590874407137,-0.0005456928761677281,2.5161453009225115e-05,-0.0007091474877856289
29.100000000000144,0.006053995970596434,0.003853247131278742,-9.816065212300904,0.0005665937179938612,0.0005332140359332256,-1.276153685888457e-05
29.200000000000145,0.010206080842661554,0.011184811338020724,-9.806661797455858,0.0005196081334759623,-0.0003182708671129191,-0.001376269553843458
29.300000000000146,-0.0030268836027039143,0.0041554191249417,-9.809491973997945,0.0005117285828896678,9.808737163288363e-05,0.00015462336318489427
29.400000000000148,0.014530805851094767,-0.005082910927954405,-9.820215521388956,-0.0007080211546151507,-0.0003876360457436158,-2.1030537316705123e-05
29.50000000000015,0.006943672672967041,-0.00366726189864243,-9.820019177844518,-0.00016124632838529843,0.001271204894994408,-0.0006626373329748607
29.60000000000015,0.00303132763545459,-0.005810248727985453,-9.813038414849649,0.0016409257061907687,0.0009219579151242772,-0.001518175861809694
29.700000000000152,0.00934957588310122,0.005223989377825601,-9.81811082808167,-0.0013974753709326076,0.00026827873463348463,-0.0007022016558577124
29.800000000000153,-0.0034509611784791,-0.010814117611529365,-9.800821745280738,-9.967649433076215e-05,-0.0016873479727122383,-0.00045281941492445626
29.900000000000155,-0.004706355258237439,-0.001308995688657864,-9.812247864608574,-0.00115041007191168,0.001861202257560836,0.0005659941753465776
30.000000000000156,-0.003242080073310153,-0.003411801089387495,-9.80795085394295,-0.0005640503366928651,0.0002562465790332022,-0.000617168920193998
30.100000000000158,0.0022098231022048094,-0.0014817489932277836,-9.818363064766842,0.0005016707642927802,0.0018581804512683537,0.001174090760567384
30.20000000000016,-0.0013326937129262072,0.013459207099365642,-9.791665898097813,-0.0008079305266454733,-0.0020365030049163857,0.0005417132932479532
30.30000000000016,-0.010471223747611318,0.010202959130258395,-9.822537650296779,0.0014784066078579138,0.0003677563590058808,0.0004116418346921107
30.400000000000162,-0.015395750707847803,-0.02201071858363769,-9.802582969980326,0.0004383428207382365,0.00046601949212610655,0.0008031638173791001
30.500000000000163,-0.002837337376864471,0.015051852624484082,-9.811098821508967,-0.0005105652046442405,0.00041550187833035607,0.00029746416001615554
30.600000000000165,-0.0041167072334891,-0.003276541901407119,-9.810913509868595,-0.0020429640991941585,0.0008549944525158269,0.0016721235129754308
30.700000000000166,-0.009185769157563197,-0.002541416993592588,-9.816131196275458,-0.0004280952983739075,0.00037376397922940133,-0.0008470989402136373
30.800000000000168,0.014831607796516147,0.0010994291510851995,-9.820845598130383,0.0013814550431440443,0.0021543623097984546,-0.001422725712652544
30.90000000000017,0.0035115974356572295,0.005990667609510632,-9.827496133496664,-0.000993178025315523,-0.0010944147984048864,0.00014011195403903213
31.00000000000017,0.016692462206575484,-0.007511218541866395,-9.81651836284151,0.0003511156622668807,-0.0005462638291263113,0.0008444857996319969
31.100000000000172,0.006240465388930178,0.001724777567722129,-9.791810937931812,-0.0011090438864154817,-0.0010530799663718469,0.00036096721832723727
31.200000000000173,-0.012996260489715236,-0.0004659404759131354,-9.811020347300042,-0.00043558805146694013,0.0020394746030314424,0.0007031842751595007
31.300000000000175,0.0006624002525482863,0.011763947482113554,-9.800822893521778,-2.2601365744251307e-05,-0.0017456490110415758,5.423001887378703e-05
31.400000000000176,-0.017947857650166616,0.006633511252727574,-9.787294478058135,-0.001028059026162715,0.0004569470552384539,0.0007377478647924533
31.500000000000178,-0.021631252085409194,-0.027562982904963167,-9.819696046984761,-0.0002796237057220477,-0.000792417853830649,-0.0003652100969240123
31.60000000000018,0.009478396707390611,-0.010709232095478256,-9.802518608400904,0.0019394348062660878,0.0026803380342796555,0.0010181773160520544
31.70000000000018,-0.000131739690798005,0.010234187199308596,-9.822150296057918,-0.0007049333631350793,0.0003649178566403026,0.0019368154538788108
31.800000000000182,0.012817236466346056,-0.0031338630999143257,-9.805752300814861,-0.0008322528130156382,-0.0003347494874600432,-0.000765861136058397
31.900000000000183,0.0016875014940816017,-0.007218459812816692,-9.814540871480318,8.054780739735549e-05,-0.0003477775359914319,-0.00086955449752061
32.000000000000185,-0.01848307192423428,0.0060440656520030535,-9.812271837378571,0.0007112287299556274,-0.0011746170158786183,0.0007909529065644605
32.100000000000186,-0.023014897814074637,0.009006373027162201,-9.825068504318272,0.0007651789569733138,0.0007753408888540208,-0.0010585043799818273
32.20000000000019,0.010295072182225985,0.0076779146991394764,-9.817660974356011,0.001109620888636114,-0.00022987553348683974,0.00047990422277986944
32.30000000000019,-0.010407873435752502,-0.012039841021893694,-9.817539909673838,-4.466561735196247e-05,0.0012246078594573657,-0.0006193815828176418
32.40000000000019,0.014170730242562298,0.00239990877201338,-9.806079691083117,0.0013746648772993552,-0.0007901226308589596,-0.0003628244415407591
32.50000000000019,-0.0019776059997394695,0.0052884023891108765,-9.806533593492738,0.0014322374191704026,-1.1310490661472598e-05,-0.0008543120476776922
32.60000000000019,0.005719198947623936,-0.008996263834603387,-9.813292967142186,-0.0013656281387880922,-0.00016998588041088584,0.0008183378923726638
32.700000000000195,-0.01015381249588317,0.009703592833329342,-9.814490997491605,-0.0018116675385363252,-0.0006325741546296431,-8.49599137567308e-05
32.800000000000196,0.005003522862710001,-0.007384672908130392,-9.816963065362645,-0.001312907941288696,0.0014085422594853772,0.0005469321047938711
32.9000000000002,0.01810484465836229,0.0042037140493701745,-9.785989304051736,-4.714126502979133e-05,0.00030302232589511527,0.0004610730489179952
33.0000000000002,0.011458341937281478,0.0007317081625788903,-9.826961840344564,0.0001678610381804171,-0.0014432712424953904,0.0009546535954948567
33.1000000000002,-0.01684501255735939,-0.006904164442180001,-9.833682367445398,-0.00043318484042174503,-3.1222585742301736e-06,0.0001424582603939804
33.2000000000002,0.010913414750522068,0.0038563624477305587,-9.824543345025345,0.0007422065359171823,0.0005029598905429919,0.0009172318762464261
33.3000000000002,-0.024164078487786782,-0.008455723644748487,-9.809295127660745,-0.0014741554960465055,-0.0012534367142084649,0.002052982033383139
33.400000000000205,-0.014323486562172185,-0.009408736094243818,-9.802315219744946,-0.0005365810170205334,0.0011902853952150882,-0.00015188072586051437
33.500000000000206,-0.014882654202438299,0.001032464479406001,-9.819398582527255,0.0002284679376210383,-0.0003269537959768657,-0.0007825436960102756
33.60000000000021,-0.00370162252163626,-0.00893899161091973,-9.807262537314191,-0.0009299480001010503,-0.0012690207394232976,0.001538351784222285
33.70000000000021,0.005167199260314614,-0.019541356429933408,-9.818579379856194,0.00017668377212371944,0.0001192075282636871,-0.0007920143592891228
33.80000000000021,-0.0046488763339453286,-0.012070764768219555,-9.81805860067277,0.0006616919133121311,-0.0018688614699139585,-0.0008717905799312446
33.90000000000021,0.004410842075898909,0.005616774685259616,-9.817426253813505,-0.0010144841259249577,-0.0009163376803566538,0.0007819292757184524
34.00000000000021,-0.0012363169839252868,0.0008829830926610277,-9.822984836956739,-0.0005819798039264859,0.0011884301091656514,0.00046219620912950875
34.100000000000215,-0.0002698024316050902,0.004519958361905105,-9.814631696401209,0.0014035939633607537,-0.0009090318416637615,0.0006392666414272926
34.200000000000216,0.0022289333368427284,0.007691542053209332,-9.806122500909504,0.000863656755894765,-0.0007233565201112816,0.00035577915365168575
34.30000000000022,-0.01342526075444854,-0.007055472971824621,-9.827758567980707,-0.0009824108130797253,0.0005961291966166614,-0.0028297767621561173
34.40000000000022,-0.00605338636277043,0.00738516546891358,-9.782434012560465,0.00035195192404722007,0.0005015289025930813,-0.0010743198819564035
34.50000000000022,-0.0031546450074334364,0.015025178854697353,-9.81526483232011,-0.002104103713980582,0.0010016928250572421,0.002238664991629238
34.60000000000022,0.0011803871504401254,-0.005349816610259208,-9.817219999868994,0.0007319408178693285,-0.0001891385473281836,0.0010192854957199074
34.70000000000022,-0.02264495716227815,0.014681831520447974,-9.804542773176362,-0.0011141418183663366,0.00020800156355566096,0.0011479880006760987
34.800000000000225,0.01190221543958677,0.014786734703975419,-9.815707571177928,0.0008853364444757619,0.0005753879207321461,-4.174297053743168e-05
34.900000000000226,0.01640194217710441,0.004565960648705404,-9.80295779601183,-7.47741338882086e-05,-0.0010270593242409356,-0.0003483967259654048
35.00000000000023,-0.0203965545326281,0.008764740879733038,-9.804632873218317,-0.0009873527078803192,0.001595243214101617,0.0007670274369669042
35.10000000000023,0.00979576982865943,0.008317223612472556,-9.807430729510612,0.00027491558892868656,-0.00046916636231279313,0.0011173641849318466
35.20000000000023,0.014501355177104963,0.00474977371800639,-9.811646632765143,-0.001605772230623745,-0.0006623308075023406,0.0008389950337406118
35.30000000000023,-0.019120111047930807,0.01783402579330064,-9.797500322366341,0.00019880095224364928,0.00026871986439154386,-0.00019301038149285122
35.40000000000023,-0.012476481297705087,0.013114376248449482,-9.785984247152983,0.0005229207802861749,0.0008996712571165979,1.2889488988625238e-05
35.500000000000234,-9.241781786231516e-05,0.007175887152704375,-9.7921572839684,-0.0011203466116608755,-0.0022384959901376104,8.083592989621548e-05
35.600000000000236,0.002707086980495612,0.010050526156491336,-9.821714923094968,-0.000753416062538006,0.0014183806637053397,0.0011910185493027013
35.70000000000024,-9.815216891833789e-05,0.006611856838335093,-9.811367751744895,-0.0013382006434152125,-0.001174368653832173,-0.0006911509217179829
35.80000000000024,-0.01964870084562426,-0.012245595375503435,-9.814498767952903,0.0004895309677832789,0.0007693198201780134,0.0003183742287207625
35.90000000000024,-0.02593216030166902,-0.0037252446675420186,-9.801697439586958,0.0005901855134770693,0.0017398752063265822,-0.00043214757278075465
36.00000000000024,-0.01446807110726965,-0.017915940908168067,-9.796543793080936,0.0007963973612988971,0.0005123593338181383,-0.0006700429974025657
36.10000000000024,0.0016781272290548467,0.0006886364416692169,-9.78907703704834,-0.000267196870499719,0.002075492906625294,0.0013505677467921884
36.200000000000244,-0.003326819377893027,-0.004393383320708343,-9.806952167411001,-0.00011985899945666647,0.0002852856478285406,-0.0004979095842956955
36.300000000000246,-0.00708259009735602,-0.0013948870540547202,-9.826969945036778,-0.00012858078601111445,0.0011443746143710084,-0.0008787831142638448
36.40000000000025,-0.0013159147836064428,0.012892265542104347,-9.818978614907069,-0.0001293650099723589,-0.0006326718513093685,0.0006865103244967474
36.50000000000025,0.0017365411857337908,0.0008260579631592353,-9.804931046034469,0.000301665435231065,-0.0009514524781557413,0.0006278995402706573
36.60000000000025,0.009768386666885157,0.0047583403286550995,-9.804969928281585,0.0002944772147469172,0.00037980896523901483,-0.00011285740576120798
36.70000000000025,0.013338619082456126,0.004013011434901626,-9.816518027580626,0.0006886818928767488,-0.00018133002161239696,3.8964225957376096e-05
36.80000000000025,-0.0007185200839565412,-0.003771939391191692,-9.8024896944687,0.0014994762385366846,-0.0010981360935385085,-0.000347101176792592
36.900000000000254,0.0055583088830630034,0.003712751722293163,-9.819333956788073,-0.0004532452233253003,-0.00015937290929153615,-0.00047935838523739443
37.000000000000256,0.005916285228434235,0.006711040765312044,-9.8087690589714,0.0005906064488058736,0.0012398386777817058,-0.00025235982361732746
37.10000000000026,0.001530381493087436,0.013674742553183326,-9.82181837337753,-0.0012654703560198127,-0.0007375692129802922,-0.0017134620742303235
37.20000000000026,0.0017469393816669585,0.008310709493906722,-9.799715578167653,-0.0021694534412872403,-0.0005442922814540278,-0.0012130576233554905
37.30000000000026,0.010166191951247204,-0.00428190669670527,-9.81227230465403,-0.0007402934565082645,0.00012295940267657675,-0.0013356593062808315
37.40000000000026,0.010838720895474517,-0.0038103754605966116,-9.80884479774264,0.0005604896540616441,-0.002459206475008121,-0.00015926123904044098
37.50000000000026,0.01814112440475508,0.0015169930283809821,-9.829707609542721,0.0011497199080508648,4.7373708064092807e-05,-0.00036230472751269807
37.600000000000264,0.004150226454167992,-0.0051437867008219005,-9.808651152810869,-0.00021311872076159268,-0.0003072675892707464,-0.00047709364478625157
37.700000000000266,0.009270410254436444,0.010164111265920428,-9.816665667662107,0.0019101023014943819,-0.001059082501313927,0.0008091501620126801
37.80000000000027,0.003656318369442098,-0.005927535957236947,-9.824569990829756,-0.0008999148615221561,0.0011894679658647214,0.000568071623352646
37.90000000000027,0.0016726406431876294,0.005786337891813332,-9.798554369635704,0.000629659958226091,0.0013589948733811366,0.0005383399706836163
38.00000000000027,-0.01295807627406878,0.0007362634856596353,-9.801256036967493,-0.0009826059680493311,0.00021245439241579777,-0.0014122465050868602
38.10000000000027,0.013801975855571533,0.025194813122136717,-9.813486356945806,0.0012621430036882544,-0.0008054759231512311,0.000401568517073011
38.20000000000027,0.0050924541220760036,-0.010142268227429594,-9.809579027813216,0.0020469393433200046,0.0004571432423366698,0.00017306993232493463
38.300000000000274,0.004661762077471869,-0.0008225762045678231,-9.80442542063931,0.000275772060535188,-0.0007993883556463037,-0.00039113183447891687
38.400000000000276,-0.009053808543834335,0.014211221909100194,-9.804995413686589,-0.0010722647702908826,0.00043179155990408333,-0.000673783169415639
38.50000000000028,-0.005989835100092601,0.007295639691957044,-9.804550914743828,0.0013333209476845429,0.0026161395720436273,-0.0012724778931928716
38.60000000000028,0.0051291710358544245,0.0031120743771784944,-9.800686990532624,-0.00022594938470989055,0.0009702763489203547,-0.0011917656266142835
38.70000000000028,-0.0023182084973838945,0.003475814216287015,-9.81443042867104,-0.000459242411511553,-0.00021093712352359225,0.0013406114855631346
38.80000000000028,-0.007850916627877126,0.01141934854894935,-9.800837927856968,-0.0005219642382381936,-0.0016312741590368439,-0.00018390007064796344
38.90000000000028,0.014321591680991445,-0.0033039153508490657,-9.818364787337783,-0.00027578107909000083,0.0007699965996308786,0.0009560572001224679
39.000000000000284,-0.007377449750229873,-0.020875576641279415,-9.817837812877249,-0.0011757632400132025,5.390037140119151e-05,0.0010713512772901957
39.100000000000286,-0.014211984415186363,-0.008717737073282448,-9.816316912007428,-0.000374737811097891,0.001879625348771162,0.0015300132152253382
39.20000000000029,-0.001000202002988593,0.00843086406067565,-9.837511406122402,-6.0440316942685764e-05,-0.00017346570854321686,0.0009787252780029039
39.30000000000029,0.014912464947890749,-0.014808090949946881,-9.807135488259618,0.001497720857237595,-4.8141808842452e-06,0.00046650169316010383
39.40000000000029,0.0014833021445458633,-0.0037624682981409457,-9.80615718760192,-0.0007832654716708574,0.0011867752182846288,0.0002576692255291441
39.50000000000029,0.002727005215045208,0.02873328449333718,-9.81569410598424,-0.0014987240364706257,-0.0001618932369360806,-0.0002598997746203606
39.60000000000029,-0.014490958227029891,0.008128438974373361,-9.798248545846997,0.0005195558688806753,-0.0006328432637526365,-0.0005585848003906627
39.700000000000294,0.008762569759505413,0.013009121603350271,-9.807715383543083,-0.001175712083628578,0.0007612383917641433,-0.0013509979806441328
39.800000000000296,0.010050631806032969,0.00490332232501654,-9.809018602851037,-0.001198832531301353,0.00038332991377117544,-0.00012832013537174443
39.9000000000003,0.00415802285712474,-0.0036310409701692838,-9.825511218852942,0.0002697776779132523,-0.0005797745604784575,-0.0009485740078583543
40.0000000000003,0.0009293304091904266,0.012360000665880451,-9.813950910177875,-0.0001918921702444887,0.000654616826306413,-4.51337657278194e-05
40.1000000000003,-0.00519322228529283,-0.012834006513185515,-9.821046651141302,0.0013729096663826377,-0.0012502402750210462,-0.0007213149596797227
40.2000000000003,-0.0007462967969854129,0.007741181609065927,-9.79977536487208,0.000820602419056279,0.0003063725515589106,-7.55833981856976e-05
40.3000000000003,-0.0005756070925325039,0.010074244313204191,-9.824396788787494,-0.0007818548996155214,0.0017142135813778031,-0.001954154237124973
40.400000000000304,-0.012290361713121829,-0.01131425371672652,-9.78757483234153,-0.000451437391216428,-0.00017661082779364334,-0.002139186498531917
40.500000000000306,-0.00310318360138953,0.009604161745778557,-9.813890744294817,-0.00116212714627537,-0.0009568127894442635,-0.0004734711940007282
40.60000000000031,0.011024650029835784,-0.0008440485246336924,-9.81356539230858,-0.00016387800765152672,-0.001210530140716026,-0.0001855279327821172
40.70000000000031,0.011166877226374527,0.0027786387858145804,-9.812081882286282,0.00026181293163905593,0.0009487515589308673,0.002151057919262639
40.80000000000031,-0.02047804805618342,-0.005551689196902743,-9.781369837977753,-0.0017451426048706595,0.00042661768094906147,-0.0008105164329032255
40.90000000000031,0.010221667073973909,0.009535696526885462,-9.812833805596279,0.0008690640294727303,0.00017237632723028835,0.0013389107107226572
41.00000000000031,-0.0004209281258028851,-0.0012026506514733568,-9.823595782322613,0.0003325630248412227,-0.0008232635530885603,0.00033855360671232384
41.100000000000314,-0.005963129899819052,0.005139618270449247,-9.816886942403787,-0.0006868046010351891,-0.00228904150878748,0.0005109245065760152
41.200000000000315,0.007075458444673252,0.0003259323213735186,-9.825665351639076,-0.00020976395259374975,0.0013935123984788174,-0.00034247107726382626
41.30000000000032,0.0033421327312098954,0.0013124706930162965,-9.810735588013127,0.0005309857174530902,0.0007589858029538589,0.0009280146971493707
41.40000000000032,-0.009253113831161485,-0.0030315557502999654,-9.813475951067476,0.0002897571336080317,0.0003085850504421348,0.0003072653055370638
41.50000000000032,0.0079435745386576,0.012983750330647416,-9.802014123721351,0.0012439652301874612,-0.0006688630899673528,-8.178930371020416e-05
41.60000000000032,-0.001763735813771014,0.0015269673842133052,-9.822182902119028,-0.0007769827054900051,-1.698326582960936e-05,-0.001561452004194591
41.70000000000032,0.021960195862785813,0.0012229825637693125,-9.810987311439325,0.0008410738505201306,0.0013730942445810965,0.0002262395801849772
41.800000000000324,0.006923248329609702,-0.005790367572756775,-9.807899632625347,-0.0012450774873419826,0.0015043049272837233,0.001797797608050978
41.900000000000325,-0.0021210692635411617,-0.008555985440992564,-9.808924245001698,-0.0004624541680120555,-0.0009373118036923806,-0.0003466435667421592
42.00000000000033,-0.01889576963218037,0.004526482569725476,-9.799211795784341,-0.0011521036797765426,-0.0009737277475112659,0.00131702676918577
42.10000000000033,0.008495322514661528,0.0038662338111785984,-9.80612256442869,-0.0008817752781573858,-0.0005032284574532994,-0.0007946828637839758
42.20000000000033,-0.0064681122214967105,0.00898215066970784,-9.795975636467865,0.0008364990182164287,7.609911973854367e-05,0.0011806599240184157
42.30000000000033,-0.007767772877083003,-0.0045650967646447115,-9.807101948258673,-0.0005576991753187873,-0.0011523717586346166,0.00041174666140013236
42.40000000000033,0.0009406098992464071,0.01002217818413558,-9.806282973997725,-0.0003930168140142128,-0.0012493351820215993,0.00020263239735023915
42.500000000000334,-0.0035717965724151347,-0.007274950233399872,-9.794566098685983,-0.00029030278641440206,-0.0013381012572433934,0.0006851967089761134
42.600000000000335,0.011462796637945714,0.007690098234189007,-9.802976453437642,-0.0011745544575757277,-0.00029103134672627267,-0.0008477706672907555
42.70000000000034,-0.008318966870369324,-0.00339361373900908,-9.808911349454863,6.790098744286356e-05,-0.00046285832600707774,0.00029036736312020955
42.80000000000034,0.007252307657059681,0.008222463201910855,-9.823354104417813,-0.000264763393488996,-0.00043018695993016134,0.00038852196554048254
42.90000000000034,0.007339487756621272,0.014875384185837283,-9.80491691150727,0.0006093609001226138,-0.0002870073347686114,-0.001511192537948536
43.00000000000034,0.010216936915776006,0.012439199288302307,-9.807662375636754,-0.0007851030784812795,4.615339731295773e-05,0.00016789531707555648
43.10000000000034,-0.006656653698286056,-0.0035631508189989452,-9.798770464864013,-0.0006706321582402291,0.0008154856776217456,-0.0009605817186952216
43.200000000000344,-0.013056255658809164,-0.025582462000167974,-9.816130111856051,-0.0008866872512085367,0.00046411114220056796,-0.00037180292760625024
43.300000000000345,0.016347626052532087,-0.009169214302963264,-9.814127024328362,-0.0011280305011517125,-0.001744313268481678,0.001043396665555115
43.40000000000035,-0.007429270414123621,0.0022356647855626003,-9.788703263146129,-0.0018250792634226776,-2.1448730720914462e-06,-0.000750592048213153
43.50000000000035,-0.01770444577979026,-0.006086198980734832,-9.794625948164647,-0.0007658844845630772,-0.00021127280394286723,-2.4524915362797216e-05
43.60000000000035,-0.01465182554121534,-0.00907099549330551,-9.808020728852332,0.0017286570724834207,-3.537467300879944e-05,0.0010505997898325268
43.70000000000035,0.0016231111825549625,0.012580015287267612,-9.793177200311883,-0.0009625532928399158,-0.0008744246755008455,-0.0019891215339499467
43.80000000000035,-0.002544119378074313,0.00710256094551022,-9.830470864285756,0.0004437123656217555,5.148386215556032e-05,0.0008810129493416344
43.900000000000354,0.00820487300096226,0.024305979509256163,-9.803494915133964,-0.00026746291190538204,0.00012834114244841062,-0.001227008776785778
44.000000000000355,0.013626814501290094,-0.010481366358249826,-9.802931536216008,0.001476002536712196,-0.00021068795226444675,0.001238281264770886
44.10000000000036,0.011810154509608727,-0.005811748431666942,-9.803774825645128,-0.0008050272863940327,0.0006446263522540834,0.0007589063157925594
44.20000000000036,0.000645475770453787,-0.0001872172506044234,-9.802820640512882,0.0009444376264575467,-0.0010890646777375068,0.0015618559851685208
44.30000000000036,-0.01735295270790262,-0.003154607499179784,-9.818485188365162,-0.0010318545913995214,0.0006869619559194769,0.0005016284424927541
44.40000000000036,-0.004325065697003877,-0.00834870809323423,-9.807568027834016,0.0001905532541895645,0.0003704474944531409,0.0014826219528558317
44.50000000000036,0.005387310861898253,-0.011472062805014227,-9.802802489378907,0.0002621474406096822,-0.0003854990861587407,-0.0009968345176347335
44.600000000000364,0.007609641031628522,-0.021916134969781377,-9.811221733650353,0.0004174650919810731,0.0004379070946680878,-0.00026553813798083645
44.700000000000365,-0.013111048270585688,0.005869426965587985,-9.81182621646382,-0.00035427479315416346,0.0019020086582877912,-0.0011391530793617044
44.80000000000037,0.01422672572966446,-0.00811533171015042,-9.803227629482157,5.8292023979689894e-05,-0.0010449949307462152,0.000718971885066126
44.90000000000037,0.025200455560936467,-0.0005747464148492207,-9.807828100113381,-5.002820692809489e-05,-0.0012325474595857578,0.0007364207841370435
45.00000000000037,0.010710549545943302,-0.007339321419640055,-9.793272510644421,0.0010693173149615696,0.0013577231429048495,-0.000367773782286246
45.10000000000037,-0.0014571164094369668,0.018250726944503245,-9.815194961332809,-0.0014671638794727501,0.0013320997756424186,0.0003026498137518716
45.20000000000037,-0.004925477467962761,-0.0037902163309630607,-9.810015581588486,-0.002010264117168013,0.00043028134953815197,-0.00034540576996333215
45.300000000000374,0.003050764666258531,0.010669918653976554,-9.811391643659775,0.0006332354473834517,0.0010884125149821522,-1.6498118475375422e-05
45.400000000000375,-0.0062672771712594215,0.02270351085206902,-9.817315238207568,0.0002434509297615994,0.000508015761324824,-0.0015661117466472928
45.50000000000038,0.011520191979419026,0.012181824086246809,-9.802653889158751,0.0011785351675038921,8.836805222127474e-05,0.0002375460506534076
45.60000000000038,-0.002557290729445854,-0.00771049309510433,-9.820979162463777,-0.0014280194312931876,-0.001089630284194561,-0.0017242032169177777
45.70000000000038,-0.002848628405802058,0.0008463461233372707,-9.807102154827412,0.0010065692359360065,-0.00010594564057160663,0.0013495693777282383
45.80000000000038,-0.021287027693146797,-0.0033108369478736122,-9.811553031341067,0.00016948817481273197,-0.00030677089233585895,0.0007458204142575281
45.90000000000038,0.0011872098637588269,-0.00404993627120288,-9.806550416362157,0.00018061145498517983,0.0011178157393521538,0.00015285261597975828
46.000000000000384,-0.010893860161697147,0.00433016855699615,-9.80276154940041,-0.00013228477503600294,0.0003669025525308171,0.0009141431613632683
46.100000000000385,-0.014781163417362384,0.015140749955491833,-9.830493365505916,-0.000506703464963622,0.0004572943594089495,0.0008162697909848674
46.20000000000039,0.0067388202947951175,0.005375589578746422,-9.804999476434975,0.0006792128859414829,-0.0009137856728549011,-0.0004101054246319461
46.30000000000039,-0.01461901164537196,0.01523781427877482,-9.813040641254343,0.001195619109588715,0.0006005991337325209,0.0011091149829920931
46.40000000000039,-0.0035328264434301743,0.024615401650544353,-9.808869551013398,0.0009390115992930723,-5.519642601669126e-05,0.0013046041748483712
46.50000000000039,0.003455082346028202,-0.014645420504749016,-9.788400860345392,0.00016633704861627644,-0.0006847899461252199,-0.00045821581877845524
46.60000000000039,-0.012279999613424986,0.006453263975360615,-9.818132730913927,-0.00029396890252521085,-0.001129879377729617,-7.769666177757782e-05
46.700000000000394,-0.010666295458647515,0.01554143953859127,-9.806074128650696,-0.0012032294642534416,0.0001858781503917554,0.00012394349212881042
46.800000000000395,0.019160366525817967,0.008684428812423017,-9.819114556217292,-0.00022703800982682004,-0.0015942938135885556,-0.0006487643987920706
46.9000000000004,0.006470601222008157,0.001407045268207656,-9.807644523027115,0.0009725183700962666,0.0005436775324809642,0.00017126629801861488
47.0000000000004,0.013426039336639882,0.015451027285893877,-9.811394447475159,-0.0018474373364151262,-0.001168826357880883,-0.0010064144654787065
47.1000000000004,0.014075733076408784,0.004158955998410134,-9.819465892702649,0.0004746726024482898,0.0015080955495822938,-0.0002504295342568472
47.2000000000004,-0.0011140854156755746,-0.006254981063950015,-9.825687612349475,-0.0015193750311101257,0.0014193341526465711,0.0005674138544358176
47.3000000000004,-0.020321700535155137,-0.005489398103045044,-9.815059696070836,0.0012481452042990397,-0.00022979536791529532,0.0008501921118626747
47.400000000000404,0.009214665414130366,0.0023003717276610996,-9.798750458255393,0.0010031785524367183,-0.0021218046601582104,-0.0013499964953529004
47.500000000000405,0.006868876549705308,-0.005620774098075379,-9.824527346697872,-0.0007389738810897907,0.0014108398433799233,-0.0008435612237068519
47.600000000000406,0.0047495497152252025,0.007519514115953048,-9.80544864768696,-0.0014107381343689332,-0.0005590326939493899,-0.0009986715888824008
47.70000000000041,0.01589308212454021,-0.008562722515019813,-9.80926391755316,-0.0011863533996311075,-0.0011470984504946971,0.00015208583811298715
47.80000000000041,-0.019025591350773263,0.0028459544724805212,-9.813054064777306,-0.0005416878048020697,-0.0008131234629755874,-0.0008871910002303078
47.90000000000041,-0.008824316420393346,-0.011079251610115777,-9.81506605024857,-0.0007835508869642795,0.0016486897626638627,0.0017249876757277815
48.00000000000041,-0.005882177191911803,-0.011325584384736796,-9.821915438141195,-0.0016328858922810571,-0.00041361129751272977,3.022236857441976e-05
48.10000000000041,-0.012476153505836902,0.019565938783778405,-9.807664334425137,-0.0007448583587376027,-0.0007643103248286769,-0.0014313976233978865
48.200000000000415,0.005507487899620378,0.008118982818079249,-9.801559997045546,0.0009523606854064852,-0.0008946351594285296,0.0010457706925338609
48.300000000000416,-0.0032156500560951763,-0.0019403204711046815,-9.805573047106876,0.001136890243950712,0.0007438104202931096,-0.0005834619690640978
48.40000000000042,-0.008177233221356177,0.020046547964020844,-9.796920217079588,-0.0008807099000827605,0.0006372860268669572,0.0012669779026883079
48.50000000000042,0.002511585843362798,0.00865122195892348,-9.814692659917402,-0.00010507302118856832,0.00042712196894468987,0.003379039414007294
48.60000000000042,-0.018527021941553326,0.014612261211085949,-9.809413660355611,-0.0003530438131449695,-0.0018690204682194698,0.0004404252210889928
48.70000000000042,-0.019718926195235156,-0.0038565794199783895,-9.804724516016396,-0.0012911120030422046,-0.0017513804649530347,-0.00045492661839339804
48.80000000000042,0.00425955281966902,0.0008373565280948435,-9.803558295978991,-0.0006948716910286974,0.000387184392212212,-0.0002105449907258648
48.900000000000425,0.0011808748275113129,0.008937201039781989,-9.816742784968213,0.00010974476971346714,-0.0007715767355247419,-0.00022673956438986123
49.000000000000426,0.0048184609520180235,0.009114820527724258,-9.808734811085465,0.0009138452464536133,8.540330054837561e-05,0.001469670928765647
49.10000000000043,0.0063172066671302275,-0.003628421719582372,-9.824234359652735,-0.00015154156289798296,0.001823749449069348,-0.0001673540886508449
49.20000000000043,-0.018257104089560987,0.0027707772642949742,-9.815371649740724,-0.0005109023387743224,-5.27754591292889e-05,0.0004845444147641138
49.30000000000043,-0.00032601444822705195,0.007423289684386732,-9.792714723343293,-0.00022925513802314184,-0.0004421262143189878,0.00044522442976940667
49.40000000000043,-0.01701920280653483,-0.003753821877359614,-9.799439930694701,0.001457122650984886,-0.0017909968774452785,0.0007031770441177389
49.50000000000043,-0.0011177540548315942,-0.005249597553980973,-9.812210916865396,0.001892882790013594,0.0013127740547362002,0.0009237367777291023
49.600000000000435,0.008218492977494529,-0.007701095165758304,-9.8060571238266,-0.00021644106766248146,0.00027557360838081376,0.0008912740050511211
49.700000000000436,-0.01214072476814181,0.002239040465350285,-9.81478711072447,-0.0006183614819666416,-0.00040605359749491555,-0.0030198457654813313
49.80000000000044,0.004271681999472684,0.01091097835440959,-9.792924117087958,0.000637945902455439,0.0015323254985089639,-0.00021075997619467905
49.90000000000044,0.020117419463213514,-0.008339661301959393,-9.817378304069083,0.0006857781276347801,0.0001576032228916759,-0.00048527711510894397
50.00000000000044,8.335229715134118e-05,-0.013974044263980117,-9.806205636720083,0.0015830878880040951,0.0014031096933827258,0.0011780035220927145
50.10000000000044,6.833638554576352e-05,-0.014940376767591903,-9.80681058189362,-0.0002791713693776451,-0.0002578869155831172,-7.455857756954476e-06
50.20000000000044,-0.0171654270357733,0.012720315396898108,-9.830216003485743,-0.00029648421111649084,0.000872373859512901,0.0002551769929323259
50.300000000000445,-0.00011571330333128435,0.002371587205500653,-9.799105764650847,-0.00048307182995629825,-0.00020474582495468187,-0.0006207345666827004
50.400000000000446,-0.004634214814571297,0.004066045475072588,-9.80603768864218,0.0010109078007477514,-0.0005321707451025123,0.0002762852068441478
50.50000000000045,0.016127639533944062,-0.005596715041872587,-9.815987574150105,-0.0010951660446981396,0.0007729694260460009,-0.6700669954961196
50.60000000000045,-0.009480807473663148,-0.009812700271110086,-9.798660528294537,-0.0012242951172963406,-0.0011017263725799508,-0.0014072747726750195
50.70000000000045,0.0017943017224040173,0.012700969243128062,-9.821349996029072,0.0007830590971383561,0.0021482114389794445,0.00107477808020734
50.80000000000045,0.001737026267755248,-0.014176391951902921,-9.805223996269804,0.0015250015736883716,0.0014244290971279264,-0.0001927321778575435
50.90000000000045,-0.008634019053202671,0.0009335560499790173,-9.810693065195307,-6.233905615221028e-05,0.0005845618294515654,-0.0004909391900933928
51.000000000000455,-0.00542336494117654,0.009416628345315727,-9.823571010270278,0.0008008973023161928,0.0005485684764829241,0.0004676013678787322
51.100000000000456,-0.004361692686398311,0.013361926352645577,-9.796474280083046,-0.0009475977791154887,-0.0011603776097492116,-0.0005281744812931371
51.20000000000046,0.0035630805575280196,-0.006745233408047918,-9.800352878354863,-0.00032527310987778504,0.0018262395193611354,0.0006973570191033768
51.30000000000046,0.0019494376073548553,-0.007552457515900192,-9.813693253547127,-0.0016393625308949885,-0.0001767299539735633,0.0001513487206210778
51.40000000000046,0.003916857241858331,-0.0017997917552002188,-9.805530692045904,0.0007128351145757651,-0.00028015590239110865,0.002029468756698899
51.50000000000046,-0.004538540037846571,0.00934034700739243,-9.817162092480654,0.0009016203534270918,-0.001469172149388865,-0.00041455923454240346
51.60000000000046,0.0049853449609773125,0.000499525015393297,-9.814053507311367,0.0007352731225013909,0.0007261794840173948,0.000665385032943691
51.700000000000465,-0.005323194189766609,0.002093265421753072,-9.803831282634956,-0.0009492443972746834,0.00124601349834444,0.0008361046293330994
51.800000000000466,-0.00924336541477388,0.003474137423034388,-9.804790613883505,-0.001307420285984022,-0.0008614789215671592,0.001013441808877573
51.90000000000047,-0.003906145345490013,-0.009438647770345351,-9.81730033819772,-0.0001319865207487648,-0.0010810123776881636,-0.0009172552580079578
52.00000000000047,-0.00665704662628923,-0.010010853058813156,-9.80176430325588,0.00012108767220302111,-0.0010602011390598554,-0.0024522610899521576
52.10000000000047,-0.002476051287482117,0.005208976736471563,-9.824363375817525,0.0006916525590317215,-0.002138223690983887,-0.00160430088606268
52.20000000000047,-0.004220562924196751,0.00885221069580196,-9.791637827790986,-0.001212175624048704,0.002111578032666635,7.348864105451837e-05
52.30000000000047,-0.011390148782393162,-0.003110908987739465,-9.793768518162707,-0.0012955805872817178,0.00033234171912870797,-0.001533839194650257
52.400000000000475,0.02420228770509601,-0.004614534924899569,-9.810401591890283,0.001253161088342854,-0.0002696268720493625,-0.0015266703092152419
52.500000000000476,0.007385797840512254,-0.01509091265795056,-9.798951428473831,-0.0031922954918885285,-0.0006574681912824328,-0.0002748376301967697
52.60000000000048,0.003954421183763305,0.0019090644645433038,-9.820678272763079,0.0015945391480964547,-0.00246479324425951,-0.0012206821374473721
52.70000000000048,0.010654203127621387,0.0009341668760978215,-9.811263441579653,0.0006359455162005187,0.002118811160098568,-0.0015961488162008328
52.80000000000048,-0.010297987904515606,-0.011304982757196396,-9.810488723840841,-0.00048681970368342494,0.0004337693983008935,-0.0012033191575292783
52.90000000000048,0.005043412623598914,0.01585554408824587,-9.787120744047478,-0.0003974883719944059,0.0011977741361073495,-0.00026676996908638946
53.00000000000048,-0.0008851958031016248,-0.02474459691637513,-9.811588100563851,-0.0013256382746554653,-0.0002722362358858195,0.0007584652345366683
53.100000000000485,0.0201088549385367,-0.006598394857308909,-9.801714228668441,-0.0007711393324234277,-0.0006244459103515745,0.0010576001871263616
53.200000000000486,-0.005406001151660966,-0.0009780000142335869,-9.807800363005342,0.001165535653466112,-0.0015293323615677402,-0.0008152664571125427
53.30000000000049,-0.0114097227438919,0.009516427154486277,-9.809026128037463,0.0018976199739320929,0.000594282754494843,0.0010418756238807431
53.40000000000049,-0.0025780652649488047,0.008391410117166874,-9.82158663883985,-0.0008398656693324675,-0.002160290359744541,3.8018831258863786e-05
53.50000000000049,-0.012194635664222473,0.0211908092374264,-9.80783292611375,-0.00010889215141902642,3.27237696344767e-05,-0.00030884578132336866
53.60000000000049,0.004738077051152827,0.0016589550417310845,-9.801228780324342,-0.0012881048755728176,0.00024298734049518346,-0.0007199051037661107
53.70000000000049,-0.0026061271470705382,0.007363707538433735,-9.804716301738814,-0.00073381521907953,-0.0012693556725087989,-0.0020547552608021244
53.800000000000495,-0.00012493038702746055,0.0012660716957970095,-9.794339091178797,0.0008735139789020504,0.00036162370210928775,-0.0028122490121853783
53.900000000000496,0.00029055527932828556,-0.014175119868290318,-9.806484955441787,-0.0019291429757466835,-0.0005234760713928292,0.00060089464410613
54.0000000000005,-0.0077869482818193,-0.004012664590300881,-9.822511834441745,0.0012402046718411872,-6.77494130979674e-05,0.0007901998999546668
54.1000000000005,-0.007177911580977151,0.0019629240808983644,-9.795908335780924,-0.0004972122204106933,-0.00048611802325288303,-0.0022364410159689757
54.2000000000005,0.009795579147142871,-0.0034346931355453973,-9.787935284620772,-0.00022294395198354822,0.0014322415099506166,3.4177045768132816e-05
54.3000000000005,-0.006652675168755402,0.00017603727806749737,-9.795047170446864,-0.000841380656414121,-0.0017775024174505171,0.00047363966506825495
54.4000000000005,-0.005626589053536873,0.007274657274302971,-9.80270248341132,0.0012550974416683952,-0.0006346928708739839,0.0011492023990571979
54.500000000000504,0.01089755114717151,-0.013500895667403286,-9.800697622631136,0.00036291452366641024,-0.0003503050585130596,0.0009697767835018827
54.600000000000506,-0.011300731201519266,0.016064216110328537,-9.804968934522561,-0.0008268913795142009,0.001984589178048589,-0.0004288417883492139
54.70000000000051,0.004119804584107793,0.02102704398061125,-9.814031070232035,0.00043632344087232055,-0.001490601494907154,0.0007589337492687875
54.80000000000051,-0.013485303907413903,0.009287205371924772,-9.803825209775177,0.0006914989224154143,-0.0008694182588501442,-0.001756754497243411
54.90000000000051,-0.004227728610586866,0.012180119747248528,-9.82096297482777,0.0009953640264135858,0.0011752530210527678,-0.000406884942711436
55.00000000000051,0.005465975087300409,-0.007798818880707651,-9.811614189811749,-0.0007013350327186011,-0.0004072335279206612,-0.0012391121423925135
55.10000000000051,0.0014549416859943288,-0.0038772913552208065,-9.807356247738594,0.0012444893760618014,-0.0005714345010637536,-0.0014352706090898653
55.200000000000514,0.012297391280497323,0.024178587834543772,-9.798767337724591,-0.0007420578186104109,-0.0003691847139095067,-0.0015120713676555124
55.300000000000516,-0.005853341449436986,-0.007448597505964929,-9.831384036000193,-0.00017376972779442645,0.0003751768884466481,0.0028596020108746668
55.40000000000052,0.013067339338677904,0.004976935175691654,-9.818744808496291,0.0016492314914130972,-0.0004019915671596731,-0.00046151639683391477
55.50000000000052,0.018106438392725105,-0.011949961204707133,-9.824581979131258,-0.0004492655190792898,0.000876883087970557,0.0018524083587079625
55.60000000000052,0.00615105567156681,-0.0007177572751021774,-9.83314817938106,-0.0007475683924488375,0.0005186889483035644,-0.0001999244431664729
55.70000000000052,-0.008400190217715464,-0.017517853294598026,-9.813676604653596,-0.0019218180205124798,0.00020719695898926765,0.0001744387365032672
55.80000000000052,0.01964996879859716,-0.012909717898196216,-9.816517602650128,-0.0013618739893970317,0.0012929232282605245,-0.000637206235221486
55.900000000000524,0.004157441097295462,0.02695761523239285,-9.796851821003276,-0.0003469916718623374,-0.0002111908521831962,0.0005591393981555037
56.000000000000526,0.007662635106391133,0.017209304868925804,-9.807840473797514,0.0016198629273739224,0.0003969661129431795,-0.0006815534048182438
56.10000000000053,-0.008529852592995988,0.00772805924589007,-9.807092528889672,-0.0009245833463708488,-0.0005346109828508941,0.001194098606010586
56.20000000000053,-0.0056096747695600635,-0.007764064410568165,-9.814779493015116,4.5792590304624095e-05,-0.0006429788494046562,-0.00047604519091516294
56.30000000000053,0.0020847801932498,-0.012083887692297604,-9.824697862269451,-0.00012451671163406507,-0.00049924992973939,-0.002554267594798091
56.40000000000053,-0.0070130953936549155,-0.009492063795276215,-9.812530073958717,0.0005856553802299133,0.00020639385911077013,-0.0016947223988336942
56.50000000000053,0.00461473125726046,0.004312745798774979,-9.797372246663732,1.041801338700787e-05,0.0010422363909316102,-0.0014217690319635386
56.600000000000534,-0.0017698727601420479,-0.00967369711006096,-9.825261680272167,0.0005795653725573946,0.0016833969105857032,-0.00035270797472652894
56.700000000000536,-0.0016278742556797572,-0.014735111206717763,-9.823986170793612,-0.0003440151279250404,0.00061866339227556,0.0007938426111791066
56.80000000000054,0.004035600325517814,-0.0016633035434044322,-9.809875608048795,-0.0005512415621684578,0.0011242943967883121,0.0006338889959153086
56.90000000000054,-0.0024856324026260694,-0.008989364414722329,-9.818520925014653,0.0010500405481720999,0.00026673873139055726,0.00032916501636070643
57.00000000000054,-0.0010090353951490677,0.004474261548998125,-9.809093648415107,-0.000766424777152817,0.0006348549299141823,0.001328042357399616
57.10000000000054,0.014556908439985873,-0.0051934966021947365,-9.819203023365654,0.002936328398691705,0.00021182824172933908,-0.001040697420464838
57.20000000000054,0.005241907442454425,-0.018289096838569458,-9.823620113531321,-0.0015543122093782064,0.00013452844266181727,-0.00035892284894419203
57.300000000000544,0.008577839992699813,0.01640699658635165,-9.821046122840864,-0.0009598582467692797,-0.0014328711987624976,-5.189663793761189e-05
57.400000000000546,0.01147935349889863,0.0022218141115526485,-9.809877419589272,0.0005928806367355994,-0.0010197874688676212,0.0005977850321742717
57.50000000000055,-0.007043892333930832,-0.010560085845683227,-9.811317989675032,-0.001262730913753195,0.0013990429165434736,0.0007771053249455049
57.60000000000055,-0.017842084426704163,-0.010848705795845808,-9.824288658318096,0.0004548665791532353,0.0009858717111243143,0.0024529485752792686
57.70000000000055,-0.0014176811948398785,0.009429984016728581,-9.82175694220049,0.0008490962434638304,0.0009350063409447177,0.00021151473648412872
57.80000000000055,-0.013776365143878653,0.020167952670459594,-9.813695982242399,-0.00030435731652539,0.0003028944902817096,-0.0014559344487913358
57.90000000000055,-0.009319075829229294,-0.007849836117677344,-9.797095209002272,-0.00113101535523066,-0.0015040677275953397,-0.0004321638202635476
58.000000000000554,-0.002854042959745316,-0.010513586146343797,-9.812374977735027,9.584469070146985e-05,-0.0011421117664593538,-0.00023784432874484013
58.100000000000556,0.01775112933114418,0.0020058987363722404,-9.810902182872589,-0.002809187720653154,0.0004758700660097984,0.0002723363158740853
58.20000000000056,0.008138182320251463,-0.009024659677573333,-9.815140056314581,0.0001580314284242815,7.889802878277554e-05,0.0005775388226265283
58.30000000000056,0.008742372651005853,0.004383910157503551,-9.800377032604093,-0.00018375915749934934,4.174441329045355e-05,-0.0004579926829330875
58.40000000000056,-0.0020716092231644776,0.005131896735910673,-9.82872242488232,0.0007006633031380925,-0.00023614596239048506,0.001135280661609539
58.50000000000056,0.013449632742818936,-0.0010004140865929715,-9.793787526821054,-0.0005658383957775385,0.0010761867414110502,-0.0006816697636821317
58.60000000000056,0.014717347547882181,0.002056755106962516,-9.798455380710497,0.0007062105343569417,0.0005732901322360531,-0.00031106918165376655
58.700000000000564,-0.012688059938041316,0.0006985777969750856,-9.800855420279467,0.00019320045167802084,-0.0014286086070885763,0.0006805035256961142
58.800000000000566,-0.010241352460164473,0.00421446221727537,-9.806604518187317,0.00018730445925221328,0.0008758669001920025,0.00047772206100321
58.90000000000057,-0.018510779560247336,0.00665830015071826,-9.80337855553797,-0.0012309871230556165,-0.0006302121132659616,0.00032956338616912316
59.00000000000057,-0.008898866462303093,0.006667158930304447,-9.819274357214747,-0.0012003126381092343,0.0027469705219580897,-0.0022149705769606283
59.10000000000057,-0.00817950300579629,0.0007976909978581182,-9.821677659922708,0.0006997054706860242,8.788564699424553e-06,-0.00029589358916440133
59.20000000000057,0.0005962019035581821,-0.020916529646616576,-9.815659550479081,-0.0019624628265040335,-0.002876362903313387,0.0003688190319969439
59.30000000000057,-0.00488380422182185,0.0033238350564448434,-9.81240931126313,-5.3798444789406094e-05,0.0009103083215620539,0.000199305998204635
59.400000000000574,0.0008953689793054548,-0.020430478228748907,-9.815515184756253,0.0013736597616482804,0.00020661046560493032,0.00010938294519131481
59.500000000000576,0.009548730394860084,-0.011673993303851367,-9.83365226923954,0.0008278313859308856,0.0008896538250601689,0.00026044255057904584
59.60000000000058,-9.93975054538577e-06,-0.013457622259104376,-9.825435956444197,-0.00034693017721582146,-0.0008739642926522846,-0.0011665941661563209
59.70000000000058,-0.005948689959472209,-0.011783821005687737,-9.821072658999993,2.060964467269599e-05,0.001029164984329839,0.000796667583829853
59.80000000000058,-0.012296563782182348,-0.015514709024340646,-9.822384867889662,0.0017087780343618786,0.0005962256455636619,-0.00034161674511195547
59.90000000000058,-0.008692666433644807,-0.015431391990443879,-9.810859965486506,-0.0004148750183816773,0.0004937185892380117,0.0006083367425261234
60.00000000000058,0.003276777774485656,-0.006524323393805115,-9.814560636633564,0.00043884586876243606,0.0002651955085671826,-0.00010791093198096568
60.100000000000584,-0.007474824481542591,-0.004362510979130356,-9.810030503934547,-0.0026556174285806487,0.0005848306702579718,0.0009041677204958028
60.200000000000585,-0.004246238828799523,-0.0035290792940026123,-9.81618202340642,-0.0005446706976384929,0.000163790154981299,-0.0006021606754949183
60.30000000000059,-0.005747350551359006,-0.0020158540588669947,-9.803052903251903,0.00014397415454525046,0.0002993727766194683,-0.0011428248553033865
60.40000000000059,0.010203374721429476,0.0007589258358721636,-9.809367477029072,0.0007746321698222103,0.0010122371253212317,0.000809940526692831
60.50000000000059,0.009189168713894054,0.002153989300561952,-9.798111432765769,0.0006357920398994343,0.0019359558276978537,-0.0003018219726846235
60.60000000000059,-0.001155521206644846,-0.008762262852287607,-9.794365022304191,-0.0011274860964942313,3.593358261936692e-05,0.00013542048632060805
60.70000000000059,-0.01213466451374196,-0.010738323777927317,-9.823716152415624,-0.00020285621844773056,-0.0005173755432163772,-0.0011777096993104716
60.800000000000594,-0.002149393770926486,-0.0024370583134793976,-9.817134520467956,0.00035905028492224864,-0.0014126308920559389,0.00026693950263728016
60.900000000000595,0.0004897005833148755,0.007625665760192972,-9.82327096850739,9.746682334073999e-05,0.0004788086797713754,-0.0013524662740655494
61.0000000000006,0.00017480396491917368,-0.009838900068132699,-9.81235231292277,0.0005652732302674511,0.00024823234577520684,-0.0018097014937603108
61.1000000000006,0.010111801050183056,-0.008543667151044584,-9.801289636558074,0.00031773891808219715,-0.0001937927693457054,-7.501123850478327e-05
61.2000000000006,-0.008459571951159378,0.010985860535628113,-9.807580352337878,-0.0009954727064471504,0.00045852004950336427,0.00113011357305875
61.3000000000006,0.0006453449577951522,-0.002731004304264075,-9.821140868476014,0.0008435194718432829,0.00035835853858997885,-9.506740097324885e-06
61.4000000000006,0.011712135328515214,0.009964775270787067,-9.807492418804939,-0.002495097061507774,0.0001493193305104338,-0.00025190521146342345
61.500000000000604,0.0036869099572067496,0.020367791430682618,-9.805342084734097,0.0007266965959394272,-0.00039163871745209186,-0.0008244711127464253
61.600000000000605,0.006517117409554338,0.012720386736133182,-9.811540644086625,-0.0006378488200891283,-0.0010145593034809894,0.0022472240124604493
61.70000000000061,-0.002403427224948645,-0.012606038148812821,-9.806301227810279,0.0001438419324849302,-0.0011519838613913132,0.00024516911295087776
61.80000000000061,0.008978497273415638,-0.02601358349095779,-9.815351197625306,1.2782543802499529e-05,0.0013069606754644142,0.0002217488072486066
61.90000000000061,-0.0027089785630216158,0.008986844839123076,-9.820796644705295,0.00011966008002580452,-0.0014710156476100387,0.0008142897708379019
62.00000000000061,-0.011353318087213942,-0.005038857047439814,-9.815284842120711,0.0010531675096356198,9.084083141131794e-05,0.000889655869285696
62.10000000000061,-0.0037777277554664397,0.003198902679085833,-9.81448085591731,0.00144629758596544,-0.0003300962316093743,-0.0010180472292850044
62.200000000000614,-0.00880902309843276,-0.007929259024648952,-9.816431613817095,0.0008371662216173684,0.0012378822140493926,0.001965512778124416
62.300000000000615,-0.017832295560148478,0.0007291321249580085,-9.827900966686263,0.000533582230701058,0.0011626072228804207,0.0005441609191259122
62.40000000000062,-0.011887824774018509,-0.010321928456014798,-9.80676267271616,0.0008088877910924419,0.0008929992627067933,-0.002178298528226397
62.50000000000062,0.001977654215798253,-0.0068116219178955715,-9.81624352048767,0.0016723647272872907,3.150225508034159e-05,0.0010353351581664722
62.60000000000062,-0.0040231352213346,0.007029207470630512,-9.798746677142665,0.0009375562221773752,0.0012057704239556723,-0.00020810024636284534
62.70000000000062,-0.028619258467296054,-0.002342733169275126,-9.805155564153944,0.0010862604951933845,-3.012251175113651e-05,0.0009498670747909794
62.80000000000062,-0.0016644429959100063,0.001711322903517511,-9.808642397901776,-0.00022947347697534507,-6.020964712330286e-05,0.0016049025409475592
62.900000000000624,0.002063094617820784,0.0008076720223198243,-9.814227664974318,-0.00041921053915964065,-0.0006598807917071924,-0.0006766760662000949
63.000000000000625,-0.0004191671881311597,-0.005336389821004827,-9.806050605237438,-0.00105764814008251,0.0008999977736872101,-0.0006015670629806819
63.10000000000063,-0.0005137893286454013,-0.007022389598787371,-9.824043993332092,0.000279854000849669,0.0007300591492443476,-0.0010612175951995398
63.20000000000063,0.01868148487215486,-0.021289078915082565,-9.804821551170049,-0.000633443586870421,9.957404190297244e-06,0.0010792619573589202
63.30000000000063,0.006525995156096155,-0.006950707248819549,-9.812154795021643,-0.00011759174712476343,0.000310463021975741,-0.0006766486828914835
63.40000000000063,-0.0008809945243177947,0.007767581680425123,-9.8100364559079,0.0005257034296889131,-0.00025784636526755855,-0.00028958906723674474
63.50000000000063,0.02180892873614695,0.0075361821423934215,-9.801527102381238,0.0007198324961264443,-0.0020938686258037778,-0.0007731125858229418
63.600000000000634,-0.0008738289993480974,-0.015562728339343496,-9.805433905946119,-0.0010433995471249076,8.17963965194714e-06,0.001651463992746669
63.700000000000635,0.01587889161773803,-0.0037074221792333267,-9.815254174464743,-0.0009372202099429052,0.00021342815912810727,-0.0009031167071532673
63.80000000000064,-0.00037429856662898853,-0.006129239831586884,-9.804016680435518,-0.00020826959811364725,-0.0003942085754409064,0.0009523316725950731
63.90000000000064,-0.005258740324881529,0.006904079617946785,-9.816058365139243,0.0010735965231815036,0.00016863069499360543,0.0011702140662222462
64.00000000000064,-0.008816474021826764,0.01569963635308765,-9.786262740530441,-0.0007277651626006793,0.0006027615972973951,0.0009141711071649116
64.10000000000063,0.013325794839338751,0.015175532927137374,-9.822318020422632,-0.0006361918661227212,0.00046052147733580617,-0.0005203470423850959
64.20000000000063,0.007624832682377578,0.0017010268692218982,-9.810575423177392,0.0012006594213015232,-0.000571078873061131,-0.002391901871556677
64.30000000000062,-0.02008728742600545,-0.008476965983808425,-9.837091602213453,-0.00036041718839083985,0.0020134551084936003,0.002553041277893383
64.40000000000062,0.010196049194378632,-0.01033269813022897,-9.811159640276363,0.0012532190045338007,0.0003638382957771557,-0.0007535069156086158
64.50000000000061,0.010502605927490583,-0.004241323761970359,-9.820073673491207,-0.0017064343637320924,0.0006812732075622474,0.0004388754511644198
64.6000000000006,0.003934738474053964,0.0023616354934146316,-9.820412457196635,0.0014292476461784693,0.001614957628050873,0.0019023239057401422
64.7000000000006,-0.014390175828857588,-0.004119744451567234,-9.815711440347794,0.0006196825843127061,0.00019726356976428953,0.0008543353330705239
64.8000000000006,0.006919879338967935,-0.007649415478647067,-9.81233652460908,-0.0009267372047877447,8.13810348594562e-05,-5.144008401133267e-05
64.90000000000059,9.876979819550165e-05,-0.014682046764814194,-9.817672372841914,-0.00017844241369365034,0.0008567894685177551,0.0004643444922046784
65.00000000000058,-0.010770392403302414,-0.0022106734847973744,-9.81807264942431,0.0002264637731274911,-0.0002802305507131155,-0.0001677239771905246
65.10000000000058,-0.0015453971551468745,-0.020623838487308654,-9.824457803594536,0.0001451775296543802,0.0012023613724361237,0.000476518352625283
65.20000000000057,-0.01165487462194737,0.013065135106151635,-9.801561068745212,0.0012901262291691508,0.0004828177859617799,-0.0015529091939088843
65.30000000000057,-0.003748668952480304,0.01595798892728695,-9.787906215201096,-0.0015974121923377352,-0.001072804114596236,-0.00025188426213929396
65.40000000000056,0.007846104232475098,-0.006693424142366292,-9.803726417614506,-0.0008303981323372474,0.0017873099676410827,0.0005577040607375967
65.50000000000055,0.014280837224243255,0.009754542054734678,-9.824650041066171,-9.06492322732093e-05,7.722462069251662e-05,-0.00012897811294038545
65.60000000000055,0.010684538399769562,0.00512775171537925,-9.799910689333064,-0.0005521954852534535,0.0005622218700676398,-0.0002501385253308416
65.70000000000054,0.0069787194419023355,0.018633645689486805,-9.818420368144698,0.0012221777983895282,0.0016858729525838384,-0.00028507640004719187
65.80000000000054,0.009718302666666736,0.011125005648887068,-9.810830752274079,0.000605290745066046,0.0004041030010046379,-0.0002816417048198353
65.90000000000053,-0.013639522402343746,0.0030903723281274593,-9.799983611042789,0.0023286035930238807,-0.000779926752297883,-0.0008794146601987114
66.00000000000053,-0.0234617739994548,0.006366022491214457,-9.824052084732115,0.0010254786006299809,0.000568137028470468,-0.0017800217734062253
66.10000000000052,-0.00467197169465452,-0.010936701460778043,-9.80915524518115,-0.0003210898262645581,-2.5437562836362234e-05,-0.0006806982459662688
66.20000000000051,0.012439920586519984,0.012542321409632079,-9.824951790757758,-0.00046323261957333697,0.0005255689018390928,9.652235185324766e-06
66.30000000000051,-0.0017996843172424421,-0.004890266217360234,-9.811367308042533,0.0002815859128878426,0.0008082957215102952,-0.0007737511157229384
66.4000000000005,-0.0064716596249967265,-0.005051222461412652,-9.81977265996544,0.0002602058678224259,-0.0001923337967134134,0.0008614158277094948
66.5000000000005,0.018291255390215807,0.002312469522110238,-9.81630618859306,0.0013725388644967092,0.0005192641299521495,-0.0022294859415046262
66.60000000000049,-0.0004358134938113048,-0.014470269585803915,-9.801253732298328,0.0008057815783857996,-0.0008173811366507678,-0.0011436842989677942
66.70000000000049,-0.018248479764485463,0.013714338574163223,-9.818282366209807,0.0006687371978457133,0.0013616833514762646,-0.0008240988153717753
66.80000000000048,-0.008842268757474356,0.005534677638534931,-9.808579650500883,0.0013142751168625923,0.001120837034866297,0.0005926522751253762
66.90000000000047,-0.017162628598961192,-0.0045920429113114085,-9.808913630974407,-0.0003991823234419908,0.0006905852991743245,-0.0007561912136364972
67.00000000000047,-0.004644174481964126,-0.006173087068807624,-9.812370623305172,-0.0009086641564185973,0.0019269125885516324,0.0010246052210524854
67.10000000000046,-0.009217673851081395,-0.0006069110670148952,-9.800132700048067,0.0010444235775352465,0.0007962202111975429,-0.00030081353220333195
67.20000000000046,0.007313238004782183,0.00424687889603846,-9.8065683207091,6.485604475182291e-05,-0.0012311927014125364,-0.0008061590641759963
67.30000000000045,-0.005307618759948245,0.002789108904020067,-9.807443962935308,0.0004087482364599084,0.0007868634767668631,3.100858037182837e-05
67.40000000000045,-0.01752284754395211,-0.022619005756029743,-9.821276386580555,-0.0005401561576314042,-0.0022147234764749732,-0.00016309397558198863
67.50000000000044,-0.014849022689004022,-0.010159514842935027,-9.822436145965723,-0.00013369515015129973,0.0006447216728220378,0.0007096320715488521
67.60000000000043,0.002102532321960732,-0.003158112444646826,-9.81176058400376,-0.0013453298284082568,-0.0011507642500101318,-0.0012737516925099533
67.70000000000043,0.011652248336845177,-0.0045867104090769415,-9.804154427443786,0.0005358096524467176,-0.0009933123067648697,0.0010110494773020958
67.80000000000042,-0.0024334300439470317,-0.0030057984744962,-9.814841708552896,-0.0011332240659381201,0.0004180295446607126,0.0009674487566712645
67.90000000000042,-0.015583122115142485,-0.0054582541387279805,-9.798250346081195,0.0013731345907960868,-0.0007968843444506566,-0.0008915065676408422
68.00000000000041,-0.01306292868148589,-0.0012610882704301518,-9.803938321241342,2.6053474841080063e-05,9.938667705868208e-05,-0.0007003451816791551
68.1000000000004,-0.02108506142192312,0.021936370955125097,-9.812729331849887,-0.001136449343605876,0.0002815822198446584,0.0009016966112997038
68.2000000000004,0.004845387768306944,-0.007292031523272751,-9.81744639395085,-0.00047334961475911403,0.0008391651761859519,0.0003734817443480577
68.3000000000004,0.010283683755421038,0.0003309207221215215,-9.828557003617616,-0.00028527146700676163,0.00011873264416748995,-0.00012304997734614712
68.40000000000039,-0.007768150370080096,0.011736499306148139,-9.803778127848656,-0.0006906952108964034,0.00030827422223949025,-0.00019126820118261711
68.50000000000038,0.014484508259771068,-0.0001810682469131768,-9.835163046078993,-0.0018391052796191065,0.00013534420920838878,-1.3839886016645942e-05
68.60000000000038,-0.002279627279672473,0.0027618636855725846,-9.801290034746737,0.0008910624367118505,-0.00021448788347942595,0.00016681816263387075
68.70000000000037,-0.009134113789643867,-0.008737351818450347,-9.804522880082434,0.00024438413464769794,-0.0018300128513078172,0.0007435725981299043
68.80000000000037,0.002632801213376241,0.0011940844632470566,-9.801725994420359,0.00046655205408086496,-0.0017716065752270546,0.00024106322471786104
68.90000000000036,0.0009520833604034454,-0.0034628076459401335,-9.824143262002428,-0.0011741048433859835,0.0007492632959175759,-0.0010967057345871209
69.00000000000036,0.006264852753708819,0.01172844672372376,-9.811341569099246,0.0005542657005716684,-0.0005619005840068011,0.00010998773896144802
69.10000000000035,0.002133465566267708,0.00370401513411799,-9.814583756015505,-0.0015202763924970887,-0.0003777679369587729,-0.0020283292962315755
69.20000000000034,0.0016231723217912909,-0.004151071555162713,-9.828403708406418,-0.0007943758590512426,0.0011328322267898335,0.0007217316045118899
69.30000000000034,0.007651878784423948,0.00030125290723766586,-9.81373585390819,-0.00044536148479977207,0.0002857616877449289,0.00015718975170141643
69.40000000000033,0.0013169138076721265,0.0006513508749865557,-9.795326141203118,0.00027549938425274774,-0.0007259652241876167,-0.0013476241300977765
69.50000000000033,-0.0021379864262017025,-0.005117395889532701,-9.80657546282364,-0.00023056229497680168,0.00030410478935144735,0.002394985646407778
69.60000000000032,-0.012813221688276356,-0.0230931036289461,-9.822012393497698,0.0011965255140428586,0.0009012982444846361,-0.0004523759829297228
69.70000000000032,0.028038084373777944,0.004489558968910291,-9.822518600956949,0.00024835913280296467,-0.0004386466273002582,0.00039893186714757525
69.80000000000031,-0.0073517908229386135,0.00038093209309998633,-9.81374366362308,-0.0017690722591270356,-0.0006756897207274968,-0.0021297710275872987
69.9000000000003,0.010305435316204588,0.03142109916864404,-9.805502714021129,0.0005335562833825077,-0.0010963994035806841,0.00012424144291354398
70.0000000000003,0.001751163046339353,0.005611428928937345,-9.819963729677731,-0.0004965662246259434,0.00307331147627779,-0.00022019226884213393
70.10000000000029,-0.009765277722802909,0.009166479108726066,-9.83063553265741,-0.00019669883333093503,-0.0007104206783317977,-0.0005724507687512405
70.20000000000029,0.005301064767467648,-0.004509480305014249,-9.810405015345863,0.0002908180723692734,-5.729272541716337e-05,0.002152847515448019
70.30000000000028,0.008755744748625555,-0.0003473400375435319,-9.803106075947262,-0.0012493980677156006,-0.0008334233361596886,-0.0002972608672671157
70.40000000000028,0.0030334543083644617,-0.008835684408988602,-9.811168316601943,-0.0004168721859398712,-0.00030478081102782123,-0.0009207556307932486
70.50000000000027,0.028029419782725152,0.004603723960882144,-9.829251748410677,-0.000325079150601901,-0.0006215387928990143,0.0010307949299766068
70.60000000000026,-0.0048557790382514985,0.00247110406374921,-9.825588808752542,-0.0011398420534134684,-0.00042564032551543424,-9.1285732787628e-05
70.70000000000026,0.0015479437746038916,0.010616016304923589,-9.820661428302087,0.0013696416513887723,-0.0003740122242792126,-0.0010380785384581633
70.80000000000025,-0.004132375841890359,-0.006412772745065849,-9.802561694791931,-0.0012255096867582658,0.0001958654948305318,9.445993341387377e-05
70.90000000000025,0.008724970951971202,-0.007642423928849043,-9.800712988973453,0.00017678351204441733,-0.0013399930113874767,0.0008469997102232071
71.00000000000024,-0.0036014521782149755,0.01927849720748602,-9.805391538201398,-0.0010753022423698278,0.0008481069770291043,0.000650852810834541
71.10000000000024,0.010011367062305203,0.00875482216998391,-9.809217718798976,-0.0009049688244553722,-0.0009426294615092736,-0.0015021485828480455
71.20000000000023,0.00018049921656982876,0.0011588043546087294,-9.812111434062285,0.00037185030446109247,-1.7167500608902327e-05,-0.0007414241376628599
71.30000000000022,0.013006258317005382,0.0028106574941623424,-9.80355788554917,-8.870041683994724e-05,-0.0002838101499229191,-0.00042371905268541606
71.40000000000022,-0.004179835464761033,0.011864435847700382,-9.81440159215154,0.0006706924833837041,-0.0006769561595491241,-0.0007010534871018406
71.50000000000021,0.00752115718222294,0.008958099902412413,-9.820969365731216,0.0008536733035762388,0.0009062990141062387,0.001736913773580906
71.60000000000021,-0.019954706420962063,0.015706313152411118,-9.796609465863666,-0.001529793579747806,-0.00018351379650941103,-0.0015985720200888847
71.7000000000002,0.008099678548439694,0.005398277160692308,-9.814431867281334,-0.0008529299560037559,-0.0009802577113724633,-0.0005303613858079772
71.8000000000002,0.005827204882515352,0.002425053935572492,-9.812219053258104,-0.0004786790879612899,0.0014637880248537796,0.00010514038612942288
71.90000000000019,-0.009377361271514591,-0.005285570695228581,-9.825443283527415,-0.0009676986841173239,0.0006751778270803158,0.0011783159988788343
72.00000000000018,0.02034624951503483,0.001036006669488914,-9.81353708050726,0.0002708624704226361,-0.00042539526408317467,0.0007423959849312189
72.10000000000018,-0.006587755891603764,-0.00199048567866002,-9.809131226949996,-6.298609155861624e-05,-0.00030830843098175303,-0.0006450784917024784
72.20000000000017,0.004844192150309486,-0.0006726522010116508,-9.804118485440387,-0.000942121917674148,9.873019514252629e-06,-0.0015834267032386548
72.30000000000017,0.015740467211729926,0.0069707850504041715,-9.803484616874133,-0.00012141558794039289,0.0005460754735064395,-0.0006566592656010564
72.40000000000016,-0.00418185886730803,0.01234935640112451,-9.805306225075604,-0.000572557743389719,-0.0009317677545629106,2.0737155183116284e-05
72.50000000000016,0.009840037526097753,-0.004069541155628644,-9.794226938382705,0.0007903350368511872,-0.00039326575126392597,-0.0004381244303251545
72.60000000000015,-0.0045095093947283005,-0.011487328924427966,-9.80396986628843,-3.076239822878093e-05,-0.0016328966111885364,0.0019086340068135749
72.70000000000014,3.986482818777684e-05,0.004245755238752122,-9.802781895968673,0.000627951020489755,0.0021702730482181156,0.0007913317526923337
72.80000000000014,0.0006682154681997381,-0.0007618846731451982,-9.809548727202353,-0.001550014423276975,4.456594616391463e-05,-0.0003169318859525968
72.90000000000013,0.00542310752941466,-0.011177989126113362,-9.800208967649269,-0.001639379263516214,0.0014101729566057388,0.0008336977999791972
73.00000000000013,0.003001911757114807,-0.0068729568247148645,-9.822271956200076,-0.0016256760236745388,-0.00034635611304276816,-0.0003631775724345142
73.10000000000012,-0.0008284807312486073,0.014569527894458738,-9.811820744549708,0.00014445626687611078,-0.0007143193252178828,-0.0012342033763000008
73.20000000000012,0.002314338098193421,0.006930500508275192,-9.80622920409672,0.0006966627140512365,-0.0011625294470530491,-0.0012064369136784655
73.30000000000011,-0.027311903166259137,0.0024341595207113867,-9.807408159920058,-0.0013702590346455971,0.0006597514491634082,-5.128947453151967e-06
73.4000000000001,-0.021952018416795775,-0.011394877228529252,-9.812814167010776,-0.0004808570393165798,0.0008878895268920412,0.0005824025928305033
73.5000000000001,0.010604656626338136,-0.0009030246946040197,-9.794118795860378,-0.0017052548670303089,-0.001277251843127278,-0.0009467667558595847
73.6000000000001,-0.010769728680044107,0.01456482490273888,-9.819656607060473,-0.00023135105081808067,-0.0019777791499475776,0.0015555049549281618
73.70000000000009,-0.0042287946767114405,0.008404719912094013,-9.808907971672284,-0.0025554507161750974,-3.9685611755289726e-05,0.0004849387265019277
73.80000000000008,0.005607312347112729,0.0048616611044005,-9.801872923891755,0.0004978312333891385,-0.000466286421511062,0.0018425244882355227
73.90000000000008,0.00717012262173822,-0.02472644751858883,-9.818786664998331,-8.253308578702293e-05,0.00028657179589066165,-0.0004477590731878242
74.00000000000007,0.001098481002659639,0.0037848077221103427,-9.791238113100613,-0.000990040477544477,-0.0012802718158250567,0.000649168353362893
74.10000000000007,-0.0066387103747515275,0.02080854094060667,-9.812110695888403,0.0006132495199056882,-0.00019514801447192347,0.0009307028556788802
74.20000000000006,-0.0056674626343074675,0.021047607510702972,-9.812258471784322,-0.0002692786210459438,-0.0008638803688389623,-0.0005113890631306231
74.30000000000005,0.005979150635258608,0.0022824721610248903,-9.797657740448626,0.001354929227547901,-0.0016704829555777932,0.001380569678336154
74.40000000000005,0.01257027898763067,-0.0019474321589429803,-9.803543062296551,0.0008695859558786618,0.0014489572214332808,-4.9533573311270245e-05
74.50000000000004,0.00481291581812455,-0.007113757192249955,-9.815904354620363,-2.3191092398756837e-05,0.0011703444744081224,9.032196536875946e-05
74.60000000000004,-0.014418774700000097,-0.00023482418024722073,-9.819983343325449,5.0067282562141084e-05,0.00013839649393930967,0.0003536212159540149
74.70000000000003,0.010402768989610957,-0.004720451352052798,-9.798937267137383,-0.001149442373652595,0.001109569755340235,-4.0990898534438205e-05
74.80000000000003,-0.00785839407578374,0.00249346197007437,-9.824060609929262,-0.0009356594326969095,0.0011412138347915604,-0.00019615040562378133
74.90000000000002,-0.008954656323767147,0.002693213126639575,-9.81171440593836,0.0011510791413776686,-0.0001814936193404291,0.001539784563788284
75.00000000000001,-0.008988787517907519,-0.003424299989904811,-9.80335972841543,0.0021300531434520808,0.0013192611496502177,-0.0023076282908192415
75.10000000000001,-0.003548199865397004,0.0015044261064818978,-9.806813252709926,-0.0002941644481656336,-0.00024388105476623337,0.0008412286871584623
75.2,0.005763860319114133,0.006672120798109962,-9.817876457479535,0.0012323901455897708,-0.0015085720563520605,0.0011089497614430698
75.3,0.0010039525542290067,-0.011807632011547626,-9.79932727138906,0.00011571183124768534,-0.0012539664709240734,-0.001043799051820716
75.39999999999999,0.01765324960598477,0.010593739072797018,-9.827153196473587,0.00021897612272870175,-0.0005205299444493374,-0.0013354774647439639
75.49999999999999,-0.013518705815204044,-0.02086355130417995,-9.812365100181186,0.0008506635835899439,0.0005253447980397248,-0.00012652408173649305
75.59999999999998,0.004751688783360692,-0.0009738796945565353,-9.81658962006843,-0.0003179957959777545,-0.0009918436082334103,0.0007818964007953429
75.69999999999997,-0.013002465835737165,0.010507031149509223,-9.812465122388675,0.0005052465294756469,-0.0013775712266908694,0.0001809965329081551
75.79999999999997,-0.014329861315981096,0.00686643450469762,-9.80803941152464,0.0021649607242705225,0.0008277233199118775,4.9719770579185967e-05
75.89999999999996,0.011213503797046527,0.004912550512589592,-9.815261555902469,-0.0002224493634728268,-0.0007036151766326506,-0.0007411535185543209
75.99999999999996,-0.012367974146772596,-0.010514724782447525,-9.797420344227287,0.0013380893005167673,2.5215748611445804e-06,-0.001002560510429975
76.09999999999995,0.00945955319843807,-0.015702662199870137,-9.818909432337193,-0.0007971010457927184,-0.00040582325902117797,0.0024280700154266535
76.19999999999995,-0.0015304051507777738,-0.017129019601820384,-9.80539568010643,-0.000945817910455013,-0.002304604037798877,0.0013554590194662724
76.29999999999994,-0.01298544840169666,0.005705172473023663,-9.804690585218367,-0.0002612282914426466,0.00022758673562040357,-0.0002859985015166669
76.39999999999993,0.00387498076068398,-0.020579595044502394,-9.828157304624117,0.000307680553410213,-0.0011415094042258305,0.001108067778895831
76.49999999999993,0.017205048909533643,0.0040461318294778914,-9.812166060851894,0.0017198737550897737,0.00042924055027454387,-0.0009842395707833859
76.59999999999992,0.016099490135944392,0.00021160969335892418,-9.817631507830763,0.0003020030875365788,-0.00023363187879233284,-0.0010378627140193346
76.69999999999992,-0.002319218272464187,0.008519256788954585,-9.79000089474332,-0.0009467125858338077,0.0005043744617386109,-0.00026564756809314836
76.79999999999991,0.0051522146322626325,-0.018563529917833804,-9.809188251031713,0.0011226240623404306,0.0004173169730688168,-0.00041475880993243453
76.8999999999999,-0.008893444702729911,-0.0034356104258649006,-9.805341122280291,-0.00074036028108658,0.0004020705503375667,-0.001191919132784685
76.9999999999999,-0.004304122600227639,-0.0006185282874627824,-9.812613474518317,-1.9754890813553396e-05,0.0013858784883649907,-0.0010574650200171473
77.0999999999999,0.005584403445521836,-0.00530236620139058,-9.807459952897371,0.0008108671779919965,0.0001276881707316652,-0.00011543067613298421
77.19999999999989,0.007709828921079447,0.004183494059906027,-9.805083982442575,-0.0007845308011675257,0.0010855752046386594,0.00138921668554864
77.29999999999988,0.004128550754611195,0.006563079721304468,-9.79221602316692,0.0008456529109257792,-0.0004274489377815023,0.00028000539014623146
77.39999999999988,0.005702724273696326,0.00535540558315346,-9.818668812743248,0.0003598241030710239,-0.00027756680409276327,0.0008493104318910041
77.49999999999987,-0.013545787306442299,-0.013417372458966306,-9.840217137200396,-0.00048332937683417325,-0.0006488982859226564,-0.0008791580882033682
77.59999999999987,-0.0014475586448826757,0.0015012685916981725,-9.8035601947361,-0.0017043324920164812,0.0024485273679344193,0.0002996808769467853
77.69999999999986,0.007131107951093268,-0.0041613143115040874,-9.805386943733335,-0.0006326274405646632,0.001955854856436878,0.000695447787888466
77.79999999999986,-0.00676512169283384,0.012153751426185523,-9.81899614220207,-0.0015181985569780263,-0.001236106068794032,0.00016571360126158742
77.89999999999985,0.016564652693823997,-0.0065226941092938265,-9.802411850878642,0.0008035959923977405,-0.0011848742943641939,0.00013507574642175052
77.99999999999984,0.0011768597232346256,0.00482611621020134,-9.81167337815513,-0.0007286548477485555,-0.00034410341916589563,0.0006398044270686251
78.09999999999984,-0.001856261321375507,-0.012338748851634041,-9.797095646666918,0.0003954476989486069,-0.001152342933012768,-0.00023376049925513461
78.19999999999983,-0.014514291504750703,0.02376684563903121,-9.801039301049716,0.0014286926537934524,-0.0006607761175714289,-0.0014351802704592838
78.29999999999983,0.02230372516226797,-0.0003157675943665213,-9.827126482732542,-0.0021803652752089803,-0.0012543992126973786,0.00044825362399214015
78.39999999999982,-0.00869194924349241,0.006333581786633635,-9.827517000261183,0.0006348077929854085,-0.001097515456886836,-0.0003509427169088781
78.49999999999982,-0.00412897687195595,-0.003528565517759604,-9.808262612889909,0.0005753537637849918,-0.0005435789293051831,0.0009881152042048571
78.59999999999981,0.01065714008900223,0.008982131406686618,-9.821740724654765,0.00012424520315449682,0.0010383807919784268,-0.0012370591069299098
78.6999999999998,-0.0068523111964266725,0.0010865105369238645,-9.805025995976296,0.00039799558281662363,-0.0010767149410392265,0.00036648549767250585
78.7999999999998,-0.011268128504560103,0.008468929852234063,-9.809180368587041,-0.00032679706245287076,-0.00016028890509343685,-0.0014794299294459818
78.89999999999979,-0.015481859792940993,-0.019523931632939858,-9.791809423378556,-0.0018912384288491705,0.001477063854481829,1.5868786553750918e-06
78.99999999999979,0.009953703447784377,-0.01684768846450256,-9.798411380469737,0.00026199327867748535,0.0009013402031203497,0.0007080756902485793
79.09999999999978,-0.002100337350563507,0.012774900139823152,-9.812722283656752,0.0008021628780566264,-0.0009676257792573758,-0.001253011012566253
79.19999999999978,-0.006041601570552378,-0.0007707859011978531,-9.819495191357026,-0.0018772268365368624,-0.0014541646215861395,0.0009699424080073695
79.29999999999977,-0.0038244700382801832,0.009876592661976043,-9.803169219942799,6.957985355569145e-05,-0.0006803596414592573,0.0003744306541017878
79.39999999999976,0.001783474877816247,0.02158371021831235,-9.817216664542597,-0.0016162145438324978,-0.0005126953097082787,-0.001401429442331216
79.49999999999976,-0.007757097482073792,-0.006457887707201139,-9.816319840124669,0.0007781865870336101,0.0003072124318043585,-0.00028388796428200177
79.59999999999975,-0.008544407208485962,-0.013976995763519516,-9.817254881826441,-0.0014733712371033435,0.0009065583755851803,-0.00018240125273088708
79.69999999999975,-0.0001444468793371748,0.006153949455769617,-9.811540379597552,-0.00043272735439033256,0.0009574590949544323,0.001149350298513532
79.79999999999974,-0.005781522451316405,-0.013698227222430286,-9.809816769690515,0.0003419439098261716,-0.0011358964034772767,-0.002529338773333787
79.89999999999974,0.020327468384156902,-0.0022310546751530907,-9.810882755414687,0.0005758400091132335,-0.001712364012701122,0.0018666377189996927
79.99999999999973,-0.008526430489534264,-0.009918435726431819,-9.808954288161448,-0.0008485268829973434,-0.0009038361796873826,-0.001622948319823376
80.09999999999972,-0.005756961709822641,0.007819893813387404,-9.816692249618525,0.001035091185584476,-0.0002829244622256868,-0.0003959896306273417
80.19999999999972,0.005968012798533539,-0.01072184750027442,-9.812083418485939,0.0003642028767313555,0.00020062318175531632,0.0030980793753785404
80.29999999999971,-0.008942721427537478,0.0020886773154688834,-9.819068620037202,0.0011975072540089265,-0.0013749045949101569,-0.0014790004485798263
80.39999999999971,0.011168547486247567,-0.019092453712357755,-9.810897563793507,0.0008686442709882301,-0.0005692818981077321,-0.0003365087670323793
80.4999999999997,0.02061517904330119,-0.0035218968671203977,-9.817024382984892,0.001009228255192092,0.0015402834375730704,0.00024020799301795867
80.5999999999997,0.007946874454742578,-0.02750689686041433,-9.807095113870862,0.00022080055669691892,-1.0642258783294926e-05,-0.0014046834801584582
80.69999999999969,0.003219726567329984,0.010997142334828099,-9.821858104977588,-0.0015155409521012929,-0.00019444999217492148,6.381166102027847e-05
80.79999999999968,-0.012891910942864456,0.0012128073656352577,-9.801327685299118,-0.0006324600953978048,4.588745690027411e-06,0.0009263875041270191
80.89999999999968,0.01611129339307823,-0.015088503592142042,-9.810846535888237,0.0007415932854743034,5.7587232193302586e-05,-0.001246815082586444
80.99999999999967,-0.009467014501814417,-0.006729136384926778,-9.808184424839409,0.0004888288463909792,0.000384137191322612,-0.0020977893135529463
81.09999999999967,-0.00016007037234345,-0.015374272195696106,-9.80628848627078,0.000520156779085502,0.001507643230308397,-0.0003957879825192255
